gx,gy,gz,ax,ay,az,mx,my,mz,theta
0.005321125895140919,0.039376330583745504,0.01383492732736639,-0.12689366936683655,-0.047884032130241394,-10.594342231750488,797093.9076102197,745539.6936178757,262494.95972187753,-95.71059313749964
0.008513801432225472,0.039376330583745504,0.015963377685422758,-0.1388636976480484,-0.0694318488240242,-10.618284225463867,783800.4188188738,751640.4312946616,278724.10046916164,-97.85331330197822
0.008513801432225472,0.03724788230628374,0.01383492732736639,-0.12689268589019775,-0.0933738648891449,-10.596736907958984,759907.7476496121,730757.8227712744,283687.8882076936,-95.71059313749964
0.006385351074169104,0.03831210644501462,0.015963377685422758,-0.13407529890537262,-0.047884032130241394,-10.589553833007812,728307.699168088,739481.963860528,299676.20849913196,-93.81407483429037
0.007449576253197287,0.04044055472247639,0.012770702148338208,-0.09576806426048279,-0.05985504388809204,-10.611102104187012,787387.8519613368,763023.6439828664,282847.47115913586,-93.81407483429037
0.008513801432225472,0.03724788230628374,0.015963377685422758,-0.13168109953403473,-0.08379705995321274,-10.54406452178955,763231.7527298568,763274.5160935286,271905.48722298624,-95.9061411137705
0.006385351074169104,0.03618365400636365,0.01383492732736639,-0.0933738648891449,-0.040701430290937424,-10.587160110473633,785226.1522287932,743734.5549423934,291070.68034604134,-96.11550356628541
0.004256900716112736,0.042569007161127354,0.01383492732736639,-0.12928688526153564,-0.047884032130241394,-10.539276123046875,757134.908341848,755205.7193170255,285088.5463786111,-95.9061411137705
0.006385351074169104,0.039376330583745504,0.018091827003181824,-0.14604631066322327,-0.09576806426048279,-10.60391902923584,754546.9588838299,749883.9549216861,276301.17731621297,-95.9061411137705
0.007449576253197287,0.03831210644501462,0.01383492732736639,-0.15322890877723694,-0.07422025501728058,-10.522516250610352,771427.784128279,755166.3822998746,264195.41087101307,-93.81407483429037
0.008513801432225472,0.03831210644501462,0.014899152506394574,-0.08858546614646912,-0.05746084079146385,-10.577583312988281,759481.401234778,744725.0997831769,266677.31357049994,-95.71059313749964
0.011706476969310023,0.039376330583745504,0.01383492732736639,-0.11252748221158981,-0.0694318488240242,-10.57040023803711,769754.8415252024,757375.9952490644,275733.04299378634,-95.71059313749964
0.006385351074169104,0.03831210644501462,0.014899152506394574,-0.12449848651885986,-0.11252748221158981,-10.60391902923584,782801.0318237884,745579.0306350269,283388.0952294755,-93.81407483429037
0.007449576253197287,0.03831210644501462,0.014899152506394574,-0.1364694982767105,-0.07900865375995636,-10.591948509216309,778765.4731122708,785099.0092268119,273546.9658497495,-93.81407483429037
0.007449576253197287,0.03724788230628374,0.015963377685422758,-0.0454898327589035,-0.08619125932455063,-10.536881446838379,752143.712250786,714792.4728562395,257325.75859176353,-95.9061411137705
0.009578026611253655,0.039376330583745504,0.011706476969310023,-0.11252748221158981,-0.10295066982507706,-10.558429718017578,765841.5769956453,731660.3682924,269400.0297016666,-93.81407483429037
0.004256900716112736,0.03831210644501462,0.011706476969310023,-0.1149216815829277,-0.07900865375995636,-10.565611839294434,783963.3371714897,758806.6349168081,279828.90343167365,-95.71059313749964
0.007449576253197287,0.03831210644501462,0.014899152506394574,-0.12210428714752197,-0.07900865375995636,-10.60152530670166,769754.8415252024,757375.9952490644,275733.04299378634,-95.9061411137705
0.005321125895140919,0.03831210644501462,0.015963377685422758,-0.12689268589019775,-0.08619125932455063,-10.503362655639648,775604.386384642,759748.5195267042,286434.1697969688,-95.71059313749964
0.007449576253197287,0.04150478302239647,0.01383492732736639,-0.13168109953403473,-0.09576806426048279,-10.620678901672363,797093.9076102197,745539.6936178757,262494.95972187753,-93.81407483429037
0.009578026611253655,0.04044055472247639,0.010642251790281838,-0.12928688526153564,-0.06464344263076782,-10.469843864440918,789060.7945644133,760814.0310336766,271309.83903636265,-95.71059313749964
0.005321125895140919,0.04044055472247639,0.01383492732736639,-0.13407529890537262,-0.090979665517807,-10.611102104187012,770344.1073284622,750574.9674209198,293848.4276176579,-93.81407483429037
0.007449576253197287,0.03831210644501462,0.012770702148338208,-0.14844051003456116,-0.10295066982507706,-10.563218116760254,750030.6605187041,754490.3994831537,283040.61615966744,-95.9061411137705
0.011706476969310023,0.039376330583745504,0.01383492732736639,-0.09576806426048279,-0.10055647045373917,-10.553641319274902,765005.1030350381,732765.178279078,275168.864101614,-93.94518622903756
0.007449576253197287,0.03724788230628374,0.01383492732736639,-0.09576806426048279,-0.10773907601833344,-10.584765434265137,773852.9108872311,753321.9451446866,271877.96633462334,-97.85331330197822
0.004256900716112736,0.04044055472247639,0.017027602864450944,-0.11252748221158981,-0.07182604819536209,-10.57040023803711,739091.776713888,736695.6420954443,300753.497597447,-93.94518622903756
0.010642251790281838,0.03831210644501462,0.012770702148338208,-0.1364694982767105,-0.07900865375995636,-10.539276123046875,786551.3780007295,764128.4539695444,288616.3055590833,-97.59464336859145
0.008513801432225472,0.03831210644501462,0.012770702148338208,-0.12210428714752197,-0.040701430290937424,-10.584765434265137,767003.8833791562,744888.0181357929,265840.8449280306,-97.85331330197822
0.009578026611253655,0.03724788230628374,0.012770702148338208,-0.1149216815829277,-0.10534487664699554,-10.60152530670166,788734.9568233718,746481.5782277717,269100.22608717275,-97.85331330197822
0.007449576253197287,0.04044055472247639,0.018091827003181824,-0.15083470940589905,-0.0933738648891449,-10.596736907958984,758970.77033335,760162.3555515937,274655.72424251575,-95.52754015165618
0.005321125895140919,0.039376330583745504,0.01383492732736639,-0.0933738648891449,-0.09576806426048279,-10.5344877243042,796930.9882217941,738373.4444341175,261390.14973519958,-95.52754015165618
0.007449576253197287,0.039376330583745504,0.014899152506394574,-0.11013327538967133,-0.08140286058187485,-10.594342231750488,778461.510179,733830.6442244389,260044.52631684183,-95.52754015165618
0.007449576253197287,0.03831210644501462,0.012770702148338208,-0.09816227108240128,-0.07182604819536209,-10.512939453125,749612.4261974695,755042.8009644096,285925.01502108044,-95.52754015165618
0.010642251790281838,0.03831210644501462,0.01383492732736639,-0.11971008777618408,-0.08379705995321274,-10.584765434265137,766678.0456381148,730555.565329888,263631.2319788407,-95.71059313749964
0.004256900716112736,0.03724788230628374,0.017027602864450944,-0.12689268589019775,-0.08619125932455063,-10.524910926818848,761417.7655461252,721381.9676624923,271045.48277536384,-93.81407483429037
0.006385351074169104,0.04044055472247639,0.011706476969310023,-0.11252748221158981,-0.10055647045373917,-10.563218116760254,764146.7542666603,770805.9004622241,292230.525085279,-95.71059313749964
0.006385351074169104,0.042569007161127354,0.014899152506394574,-0.090979665517807,-0.11971008777618408,-10.584765434265137,768492.0264678987,772448.0752234791,264491.2660794186,-93.81407483429037
0.006385351074169104,0.04044055472247639,0.017027602864450944,-0.12210428714752197,-0.07661445438861847,-10.515334129333496,748371.4859479365,733178.9687423562,263390.411522995,-95.9061411137705
0.008513801432225472,0.03831210644501462,0.014899152506394574,-0.090979665517807,-0.06703764945268631,-10.512939453125,772017.0499315388,748365.3544717298,282310.7954948846,-95.71059313749964
0.007449576253197287,0.03831210644501462,0.017027602864450944,-0.10773907601833344,-0.10055647045373917,-10.536881446838379,744784.1494948332,721795.8036873817,259267.03722091077,-95.71059313749964
0.007449576253197287,0.03831210644501462,0.014899152506394574,-0.1149216815829277,-0.06703764945268631,-10.54645824432373,752029.4408628222,766613.2393398685,273712.5969860841,-95.9061411137705
0.005321125895140919,0.04044055472247639,0.01383492732736639,-0.09576806426048279,-0.07900865375995636,-10.541669845581055,784148.1313676857,729036.971904098,269640.8868346338,-93.81407483429037
0.005321125895140919,0.039376330583745504,0.01383492732736639,-0.12928688526153564,-0.08619125932455063,-10.606313705444336,780864.7568120436,768922.1262898851,279019.9450412913,-95.71059313749964
0.006385351074169104,0.03618365400636365,0.015963377685422758,-0.0694318488240242,-0.038307227194309235,-10.608707427978516,784473.9691087271,743369.424710003,271850.49978382373,-93.81407483429037
0.006385351074169104,0.03618365400636365,0.001064225179028184,-0.10534487664699554,0.011971008032560349,-10.577583312988281,781375.3930316094,753484.8634973025,271041.497692154,-95.9061411137705
0.009578026611253655,0.030862529151520032,-0.02766985465473278,-0.17238251864910126,-0.011971008032560349,-10.711658477783203,747187.2994385173,756887.2381195974,278242.4595574701,-93.81407483429037
-0.006385351074169104,0.05321125687081459,-0.02979830501278915,-0.1843535304069519,-0.0694318488240242,-10.797849655151367,732079.9254709376,721095.4679744116,293611.55556790053,-93.81407483429037
0.008513801432225472,0.02766985465473278,0.005321125895140919,0.10295066982507706,0.10773907601833344,-10.757147789001465,768592.5361775013,744148.390967283,279292.2347915883,-95.9061411137705
0.002128450358056368,0.022348727719294564,0.05214703273208371,-0.3208230137825012,-0.16519992053508759,-10.69489860534668,750448.8948399387,753937.9980018977,280156.21729825455,-95.9061411137705
0.009578026611253655,0.04150478302239647,0.001064225179028184,-0.1364694982767105,-0.28730419278144836,-10.57040023803711,761070.0540331228,743985.4726146671,280128.7034340576,-95.9061411137705
0.011706476969310023,0.047890132015970976,-0.08300956604479294,-0.2825157940387726,-0.06703764945268631,-10.54645824432373,749775.3455858951,762209.0501481678,287029.82500775834,-95.71059313749964
0.010642251790281838,0.03724788230628374,-0.2160377082218294,-0.014365210197865963,-0.047884032130241394,-10.553641319274902,763068.8333414313,756108.2669097707,270800.6772363083,-93.81407483429037
0.010642251790281838,0.04150478302239647,-0.40972670120793186,-0.3687070608139038,-0.17238251864910126,-10.448296546936035,747187.2994385173,756887.2381195974,278242.4595574701,-95.71059313749964
0.015963377685422758,0.015963377685422758,-0.6683333916237534,-0.28730419278144836,-0.36152446269989014,-10.529699325561523,713998.7001661458,766351.0469864258,280779.3496961195,-95.71059313749964
0.018091827003181824,0.010642251790281838,-1.1919322338010796,-0.811634361743927,-0.3734954595565796,-10.96544361114502,754850.9218171007,801152.319924059,289803.6168491206,-97.85331330197822
0.026605628435407296,-0.011706476969310023,-1.299418880135277,-0.3423708379268646,0.17238251864910126,-10.63504409790039,751320.2434505611,835341.2543967604,323066.90471587284,-97.85331330197822
0.031926755370845515,0.0713030838739964,-1.2962262826204902,-0.3902548849582672,0.019153613597154617,-10.99656867980957,727815.7230118039,864256.9844860012,316544.15029021294,-101.6893691754392
0.04895435615470185,0.003192675537084552,-1.287712422931616,-0.3687070608139038,-0.0694318488240242,-10.02691650390625,703553.4591678219,902913.7545738118,341884.0149241119,-99.46232220802563
-0.004256900716112736,0.04044055472247639,-1.2845198254168289,-0.009576806798577309,-0.05746084079146385,-10.663774490356445,683899.7946156085,922079.2237413743,355390.43954022933,-99.46232220802563
0.04895435615470185,0.012770702148338208,-1.2834556262452332,-0.35673606395721436,0.20111294090747833,-10.843339920043945,659227.3075723033,947873.524732341,403509.7238475451,-107.24145939893998
0.01383492732736639,0.057468157586927325,-1.2760059657279545,0.08619125932455063,0.10055647045373917,-10.572794914245605,671988.2890311911,994146.0040941346,406551.8457187212,-112.47943439710312
0.020220277361238194,0.0329909795095764,-1.2760059657279545,-0.1867477297782898,-0.004788403399288654,-10.740388870239258,655674.7527747337,1018998.4204752049,448065.8636607417,-117.40757543781842
0.0595966100255783,0.04044055472247639,-1.2685564383687304,-0.3998316824436188,-0.17477671802043915,-10.398017883300781,651391.8918755776,1052822.1300802098,462108.9385783837,-122.61924307119284
0.021284503580563677,0.020220277361238194,-1.2536572504922276,-0.2298433631658554,-0.026336219161748886,-10.376470565795898,633916.050271419,1064446.942179499,507182.1483182062,-125.75388725443676
0.02766985465473278,0.01383492732736639,-1.2408865941169707,-0.043095629662275314,0.05746084079146385,-10.36449909210205,592183.6970029871,1104622.2636435707,526512.3694107069,-136.33221985386965
0.017027602864450944,-0.006385351074169104,-1.2217304763960306,-0.3447650372982025,0.3232172429561615,-10.685321807861328,597033.8468901347,1100933.397797825,541877.5459898855,-140.4403320310055
0.054275485170734675,0.008513801432225472,-1.211088218363965,-0.24181437492370605,0.5386953949928284,-10.754754066467285,574034.3024499062,1124518.0858396015,578459.1981744281,-145.7842978675626
0.003192675537084552,-0.002128450358056368,-1.1961891636455166,-0.4405331015586853,0.31603461503982544,-11.224017143249512,570694.1741541503,1118831.1386260937,550451.6048485249,-150.01836063115067
-0.014899152506394574,0.011706476969310023,-1.1770330459245768,-0.22505496442317963,0.3711012601852417,-11.317391395568848,558579.1162913608,1111329.7782814843,602911.5459635031,-156.80140948635182
0.04363323129985824,0.042569007161127354,-1.1600054597048826,-0.043095629662275314,-0.2992752194404602,-10.014945983886719,516683.8433407787,1144338.897879451,621136.9732627721,-162.18111108547723
0.028734078793463663,0.04044055472247639,-1.1451062718283798,-0.10773907601833344,-0.05985504388809204,-10.623072624206543,543264.9710185919,1142243.5900540648,639761.5416373686,-164.57783868126134
0.05321125687081459,0.057468157586927325,-1.1248859549358443,-0.33758243918418884,-0.08619125932455063,-10.572794914245605,532722.4437744461,1160832.3942113034,665882.88532946,-166.8659776936037
0.018091827003181824,0.028734078793463663,-1.1185006267482158,0.033518824726343155,0.09576806426048279,-10.565611839294434,507830.3805856862,1133888.3447347947,675510.688311981,-174.0938588862295
0.035119429867632765,0.05001858445462194,-1.1025373062791446,0.0071826050989329815,0.19632454216480255,-11.010933876037598,537246.756214277,1142811.028242,679038.4327660024,178.09084756700364
-0.018091827003181824,-0.002128450358056368,-1.0855096534804232,-0.014365210197865963,0.023942016065120697,-10.994174003601074,465524.8857653153,1154034.993479876,716515.5261153866,176.18592516570965
0.017027602864450944,0.022348727719294564,-1.0674178680891333,-0.047884032130241394,0.19153612852096558,-10.994174003601074,499302.75403724995,1137770.1994929472,732094.0127246941,174.28940686250036
0.02766985465473278,0.017027602864450944,-1.051454481041035,-0.0933738648891449,-0.07661445438861847,-10.462661743164062,491780.1762393214,1137607.2790687121,732930.4920034392,166.4295656148385
0.017027602864450944,0.004256900716112736,-1.0344268948213406,-0.090979665517807,0.019153613597154617,-10.493785858154297,467129.5658318967,1126465.6654486533,769756.9371192768,162.75854060106005
0.03724788230628374,0.030862529151520032,-1.0131423787572094,-0.033518824726343155,0.090979665517807,-10.680533409118652,468661.4641480432,1080153.843801584,745821.6522326616,159.67686317033704
0.009578026611253655,-0.002128450358056368,-0.9833440695832311,-0.2346317619085312,-0.014365210197865963,-10.721235275268555,502496.0836285556,1109461.1078278855,798786.7936658042,156.03751102542182
-0.0,0.005321125895140919,-0.9620595535190998,-0.15801730751991272,0.05985504388809204,-10.886435508728027,504595.3693226302,1093284.2222568966,804259.7591034255,151.69924423399362
0.012770702148338208,0.03405520572890189,-0.9407750374549685,-0.19632454216480255,0.15083470940589905,-10.879252433776855,480602.0938260256,1100701.3414796975,794422.5957902295,145.7842978675626
0.015963377685422758,0.017027602864450944,-0.9194905213908372,0.08858546614646912,-0.17956513166427612,-10.362105369567871,477867.3508541622,1061383.57827977,824320.3927132032,140.4403320310055
0.014899152506394574,0.021284503580563677,-0.9003344702489245,-0.009576806798577309,-0.3208230137825012,-10.192116737365723,502292.62974012,1029893.0594473371,800085.3274297065,138.9909130984298
-0.0,0.014899152506394574,-0.8769215558416019,-0.19393034279346466,0.031124621629714966,-10.845733642578125,481476.6588043958,1035830.8787715071,817150.9368194598,131.0090869015702
0.008513801432225472,0.017027602864450944,-0.8598939696219078,0.08140286058187485,-0.14604631066322327,-10.273519515991211,519762.71812876005,1028374.462509464,806094.9639469387,130.8150838748816
0.007449576253197287,0.026605628435407296,-0.8354167894639623,-0.2082955539226532,-0.05267243832349777,-10.687716484069824,519273.9620351027,1006875.8060814126,802780.5480352369,123.17851165939277
0.007449576253197287,0.026605628435407296,-0.8205176015874595,0.004788403399288654,-0.014365210197865963,-10.606313705444336,521557.94723031553,960929.2072304208,798065.4867340077,121.60750224624891
0.007449576253197287,0.012770702148338208,-0.7981688863517324,-0.17717093229293823,-0.05506663769483566,-10.541669845581055,515219.65026582195,937058.021256605,784049.9165112822,116.56505117707799
0.031926755370845515,0.02766985465473278,-0.7875266283196669,-0.009576806798577309,-0.0694318488240242,-10.517727851867676,499658.2981652401,962275.6134316776,844784.1220396863,113.19859051364818
0.025541404296676416,0.05321125687081459,-0.7694347763493498,0.023942016065120697,-0.06703764945268631,-10.36449909210205,558108.651907436,920216.4266720437,812243.306854866,107.24145939893998
0.017027602864450944,0.03405520572890189,-0.7438933970198087,0.08379705995321274,-0.09576806426048279,-10.484209060668945,563043.0915993152,915057.5750456178,802619.4614477138,109.02560603756869
0.025541404296676416,0.023412953938620047,-0.733251138987743,0.040701430290937424,-0.06464344263076782,-10.500968933105469,546162.2676844004,909775.1459113876,814725.2187236332,103.57043438516149
0.014899152506394574,0.021284503580563677,-0.7258015450494916,-0.16759411990642548,-0.09576806426048279,-10.702081680297852,552196.6030451577,882377.965126789,815238.3402441707,101.6893691754392
0.021284503580563677,0.021284503580563677,-0.7109024237520161,-0.06224924325942993,-0.05267243832349777,-10.556035041809082,565837.8070443845,853673.7645473568,789925.9675237981,99.7824070318073
0.024477178077350926,0.021284503580563677,-0.7002601657199504,-0.15322890877723694,-0.011971008032560349,-10.522516250610352,575565.7414896414,799253.8967177733,758280.6019949809,93.81407483429037
0.024477178077350926,0.039376330583745504,-0.6821683137496333,-0.011971008032560349,-0.026336219161748886,-10.572794914245605,592872.9091603212,790569.0523521837,763185.4376948157,91.90915243299638
0.010642251790281838,0.031926755370845515,-0.6683333916237534,0.028730420395731926,0.004788403399288654,-10.539276123046875,626061.6091106561,781105.2858504616,760648.5164362154,84.28940686250037
0.005321125895140919,0.014899152506394574,-0.6555627352484965,-0.10055647045373917,0.021547814831137657,-10.704475402832031,569816.706633529,768581.6408662846,762380.4277105218,84.28940686250037
0.015963377685422758,0.02766985465473278,-0.6406635473719937,-0.021547814831137657,0.05027823522686958,-10.462661743164062,597155.7703532021,756745.2954295258,749142.3465837274,80.21759296819272
0.014899152506394574,0.017027602864450944,-0.6332139534337423,-0.002394201699644327,-0.035913024097681046,-10.539276123046875,640398.1461715179,707194.1127105267,717169.6879664158,78.69006752597979
0.006385351074169104,0.028734078793463663,-0.6225717619807039,0.05506663769483566,0.08140286058187485,-10.587160110473633,606025.3570658908,740366.1953447001,734558.6490627411,76.86597769360368
0.011706476969310023,0.03831210644501462,-0.6087367732757968,-0.021547814831137657,-0.07900865375995636,-10.462661743164062,637462.4848294549,724475.8068277297,717465.5279539053,72.75854060106002
0.01383492732736639,0.02766985465473278,-0.599158780994354,-0.0071826050989329815,0.016759412363171577,-10.709263801574707,642255.8825997482,675214.7903089945,695444.0276377966,70.3461759419467
0.009578026611253655,0.026605628435407296,-0.5863880580400698,-0.033518824726343155,0.011971008032560349,-10.606313705444336,637669.1574509826,657770.1799107947,695984.6456565006,68.55226367289465
0.005321125895140919,0.021284503580563677,-0.576810065758627,0.0454898327589035,0.06464344263076782,-10.663774490356445,638937.6317708316,632591.9273869356,656143.589389615,66.80140948635182
0.018091827003181824,0.014899152506394574,-0.5651035419759385,-0.021547814831137657,0.10295066982507706,-10.625467300415039,637832.0763215035,664936.406313747,697089.4521310955,64.29004621918874
0.010642251790281838,0.03405520572890189,-0.5523328523111679,-0.009576806798577309,0.05027823522686958,-10.618284225463867,639931.266362028,648759.518671139,702562.4282049926,63.43494882292201
0.014899152506394574,0.0329909795095764,-0.5438190592013209,-0.08140286058187485,0.035913024097681046,-10.656591415405273,675061.9922129408,605846.4444262149,653310.8269237622,61.69924423399363
0.020220277361238194,0.02979830501278915,-0.529984137075441,-0.028730420395731926,-0.10534487664699554,-10.460267066955566,657428.9861364522,600198.8368639206,646196.3828593778,57.38075692880717
0.014899152506394574,0.02766985465473278,-0.5225345764267032,-0.10534487664699554,-0.035913024097681046,-10.54406452178955,701238.7472417473,580782.4756584574,643631.9535674076,54.68878656036681
0.012770702148338208,0.028734078793463663,-0.5023142928236812,-0.0454898327589035,-0.033518824726343155,-10.556035041809082,671148.8186642341,580130.8022479939,646977.8281372848,53.13010235415598
0.011706476969310023,0.035119429867632765,-0.49167203479161553,-0.11971008777618408,-0.016759412363171577,-10.556035041809082,674657.6207466063,582877.8053866286,625007.3841202538,50.19442890773481
0.008513801432225472,0.022348727719294564,-0.4757086477435171,-0.06464344263076782,0.009576806798577309,-10.613495826721191,681017.7943469802,569813.0767494192,627730.115151501,50.44033203100551
0.009578026611253655,0.025541404296676416,-0.4522957000466808,0.06224924325942993,-0.014365210197865963,-10.47942066192627,681265.0025429863,575509.3414695284,603845.9100288084,42.27368900609374
0.010642251790281838,0.03831210644501462,-0.4373965454596917,-0.019153613597154617,0.035913024097681046,-10.613495826721191,707363.2233285947,541809.1636872835,568073.2033060523,40.81508387488159
0.014899152506394574,0.03831210644501462,-0.42356162333381175,-0.08140286058187485,0.040701430290937424,-10.548852920532227,722997.450576021,535333.9528566377,584515.6631791427,39.559667968994496
0.011706476969310023,0.0329909795095764,-0.4033413397307898,-0.023942016065120697,-0.040701430290937424,-10.560823440551758,703612.872498283,523259.74649891106,562845.0250689258,36.46923439005187
0.015963377685422758,0.03724788230628374,-0.38418528858887707,-0.05506663769483566,0.0454898327589035,-10.56800651550293,721919.431523694,520636.34396446386,563085.8501094118,34.2157021324374
0.012770702148338208,0.030862529151520032,-0.37673572794013926,-0.07661445438861847,-0.014365210197865963,-10.60391902923584,719735.8561717503,538283.1916573063,582601.8985613981,32.61924307119283
0.01383492732736639,0.039376330583745504,-0.3586438759698222,-0.06224924325942993,0.05267243832349777,-10.666168212890625,755681.1761897455,531201.2262073281,538874.3238487395,29.981639368849336
0.012770702148338208,0.03405520572890189,-0.34480895384394233,-0.06703764945268631,-0.05027823522686958,-10.594342231750488,748932.6573554634,494467.56938062696,547638.1641301506,29.981639368849336
0.01383492732736639,0.031926755370845515,-0.3213960061471062,-0.040701430290937424,0.0071826050989329815,-10.551246643066406,757954.3194877608,503722.6091850161,539805.6732998166,27.407575437818405
0.017027602864450944,0.035119429867632765,-0.30543261909900765,-0.06703764945268631,-0.040701430290937424,-10.500968933105469,698947.518136866,497178.94757590536,537291.8227234271,25.709953780811265
0.011706476969310023,0.03831210644501462,-0.29904729091137916,-0.08619125932455063,-0.021547814831137657,-10.505757331848145,730221.7270299093,474122.3326559826,519093.89513999614,24.904768808095188
0.009578026611253655,0.03405520572890189,-0.28414813632439,-0.08379705995321274,-0.023942016065120697,-10.587160110473633,780106.455887333,499710.6828380479,514639.2458838793,23.962488974578186
0.011706476969310023,0.03724788230628374,-0.27350587829232437,-0.07900865375995636,0.0071826050989329815,-10.565611839294434,749201.8378215708,463227.8981220088,512461.10222914064,22.16634582208246
0.007449576253197287,0.03724788230628374,-0.25647827542787344,-0.07422025501728058,-0.016759412363171577,-10.572794914245605,765734.9470465091,491113.81293969095,509438.5804383926,21.44773632710535
0.008513801432225472,0.035119429867632765,-0.24583601739580777,-0.08858546614646912,-0.021547814831137657,-10.627861022949219,742005.1934182339,477397.4325752977,515507.18382079987,19.025606037568682
0.009578026611253655,0.03831210644501462,-0.22455151797643327,-0.09816227108240128,-0.040701430290937424,-10.639832496643066,774688.9186995748,473264.70636499854,469865.8467827167,19.025606037568682
0.009578026611253655,0.03618365400636365,-0.21178081166690588,-0.014365210197865963,0.016759412363171577,-10.551246643066406,762068.9828571513,471094.4339450427,479221.3685061022,17.81888891452278
0.007449576253197287,0.04363323129985824,-0.19262476052499317,-0.06703764945268631,0.011971008032560349,-10.589553833007812,771937.9573765548,460776.70998300426,459973.6635434387,13.570434385161485
0.009578026611253655,0.03831210644501462,-0.1713402611056187,-0.043095629662275314,0.0,-10.630255699157715,778786.88841945,469210.65945712605,466010.8082676706,14.036243467926479
0.010642251790281838,0.03831210644501462,-0.1521841933189492,-0.0454898327589035,0.014365210197865963,-10.54406452178955,801517.3493766558,476865.64298954536,464606.1981785817,14.036243467926479
0.008513801432225472,0.039376330583745504,-0.1447346160254546,-0.07661445438861847,-0.040701430290937424,-10.57040023803711,771101.4874045509,461881.51470155775,465742.470435545,9.782407031807287
0.011706476969310023,0.03831210644501462,-0.13622082291560755,-0.0454898327589035,0.0071826050989329815,-10.591948509216309,781133.3807944752,458730.01714247174,447599.5719474765,11.689369175439193
0.009578026611253655,0.03724788230628374,-0.11812899591242572,-0.026336219161748886,0.009576806798577309,-10.579977035522461,778623.9695489294,462044.43305417366,464906.00179307564,11.689369175439193
0.010642251790281838,0.039376330583745504,-0.10110139304797477,-0.0933738648891449,-0.011971008032560349,-10.548852920532227,768592.0748294706,465195.93236930115,483048.90945042454,9.462322208025617
0.010642251790281838,0.03724788230628374,-0.08620223846098558,-0.031124621629714966,-0.011971008032560349,-10.560823440551758,772611.5098075722,452505.6771054569,453100.0410074571,11.309932474020213
0.008513801432225472,0.039376330583745504,-0.07343154047383658,-0.08379705995321274,-0.026336219161748886,-10.522516250610352,778298.1318078879,447711.98024826887,462696.38884388574,7.853313301978219
0.008513801432225472,0.039376330583745504,-0.06704618731907289,-0.0694318488240242,-0.021547814831137657,-10.51054573059082,764437.352699016,423677.8759218372,449517.2872636296,7.853313301978219
0.008513801432225472,0.039376330583745504,-0.06278928660296015,-0.08379705995321274,-0.05985504388809204,-10.563218116760254,787735.1044916528,461467.72423827974,477520.923014164,7.594643368591445
0.010642251790281838,0.035119429867632765,-0.0595966100255783,-0.05985504388809204,-0.033518824726343155,-10.524910926818848,815158.552857978,448161.4196293075,439293.8219461261,7.3523793598923595
0.008513801432225472,0.03831210644501462,-0.047890132015970976,-0.09576806426048279,-0.002394201699644327,-10.582371711730957,791080.9870387369,457048.50185198284,454445.6771071782,5.9061411137705
0.006385351074169104,0.03831210644501462,-0.031926755370845515,-0.08619125932455063,-0.0071826050989329815,-10.620678901672363,791002.4536264976,448412.29173996963,428351.8380099765,5.710593137499642
0.012770702148338208,0.03831210644501462,-0.039376330583745504,-0.090979665517807,-0.05506663769483566,-10.541669845581055,759828.6550946281,443169.17828254873,461350.7562562477,5.710593137499642
0.006385351074169104,0.03831210644501462,-0.0457616837385092,-0.038307227194309235,-0.031124621629714966,-10.517727851867676,760154.4928356697,457501.6310884535,463560.3692054376,5.9061411137705
0.006385351074169104,0.03831210644501462,-0.035119429867632765,-0.08858546614646912,0.014365210197865963,-10.556035041809082,791243.9053913528,464214.7054741295,455550.48006969015,5.710593137499642
0.007449576253197287,0.03618365400636365,-0.023412953938620047,-0.08140286058187485,-0.021547814831137657,-10.532093048095703,804722.1902611066,428344.2671013421,429133.2991186811,5.710593137499642
0.004256900716112736,0.03724788230628374,-0.01383492732736639,-0.0694318488240242,-0.040701430290937424,-10.529699325561523,776036.0227499802,456722.66514675104,456118.6143921168,5.9061411137705
0.007449576253197287,0.03618365400636365,0.004256900716112736,-0.026336219161748886,0.0,-10.60152530670166,779808.1544698618,438336.1540425709,450053.96117183944,5.710593137499642
0.006385351074169104,0.039376330583745504,0.023412953938620047,-0.06464344263076782,-0.019153613597154617,-10.577583312988281,775221.4286563292,420891.5445223919,450594.5837751836,7.594643368591445
0.007449576253197287,0.039376330583745504,0.018091827003181824,-0.06464344263076782,-0.002394201699644327,-10.577583312988281,776120.3125547117,455252.67936607107,431129.5924057859,7.594643368591445
0.006385351074169104,0.04044055472247639,0.030862529151520032,-0.014365210197865963,0.031124621629714966,-10.56800651550293,789677.2259723499,428018.43039611034,430806.2364036197,5.9061411137705
0.008513801432225472,0.03831210644501462,0.028734078793463663,-0.15083470940589905,-0.028730420395731926,-10.515334129333496,776383.7374399563,434119.1794632989,447035.37890694535,3.8140748342903543
0.008513801432225472,0.04044055472247639,-0.039376330583745504,-0.1628057211637497,-0.11971008777618408,-10.572794914245605,796767.6090390524,452254.8049947948,464042.0249436068,5.710593137499642
0.015963377685422758,0.03618365400636365,-0.17240447692197117,-0.22266076505184174,-0.12449848651885986,-10.560823440551758,782806.3233975519,456520.40419328184,436061.93982470327,7.594643368591445
0.010642251790281838,0.03831210644501462,-0.294790361066942,-0.181959331035614,-0.05027823522686958,-10.579977035522461,795852.6029957405,444723.403113418,443717.0110770721,7.594643368591445
0.007449576253197287,0.035119429867632765,-0.34587318630505165,-0.12689268589019775,-0.047884032130241394,-10.589553833007812,810082.9737087509,409218.1419750965,436520.04668728315,7.594643368591445
0.011706476969310023,0.04150478302239647,-0.31926754122488754,-0.05985504388809204,-0.0071826050989329815,-10.522516250610352,788740.2483971351,457422.9517860268,421774.0706824005,3.945186229037563
0.009578026611253655,0.031926755370845515,-0.2500929139507313,-0.033518824726343155,0.05746084079146385,-10.551246643066406,804458.7656348142,449477.778394517,413227.5143735632,5.9061411137705
0.006385351074169104,0.03724788230628374,-0.1436704002091021,0.031124621629714966,0.06703764945268631,-10.529699325561523,809903.934281788,428881.65816880774,395625.227563517,5.710593137499642
0.004256900716112736,0.03724788230628374,0.014899152506394574,0.1173158809542656,0.1412578970193863,-10.5344877243042,784642.1848711491,461477.0176470444,425629.114176525,1.9749340108819766
0.002128450358056368,0.04150478302239647,0.31501064466996404,0.24899697303771973,0.21787235140800476,-10.505757331848145,805558.6615626448,427239.46062674717,423364.48305729445,0.0
-0.001064225179028184,0.04363323129985824,0.6406635473719937,0.2777273952960968,0.33518823981285095,-10.60391902923584,813569.9000596327,448901.0467978174,425842.4320825685,-1.9749340108819766
-0.009578026611253655,0.0595966100255783,1.0887023841532646,0.2561795711517334,0.40701428055763245,-10.754754066467285,790592.2304271748,435549.82264312566,451131.2576833933,-3.945186229037563
-0.026605628435407296,0.061725058303040065,1.6836042353031815,0.15562310814857483,0.4118026793003082,-10.644620895385742,766677.6804615392,451603.1315843312,467387.8995134841,-1.9749340108819766
-0.024477178077350926,0.08620223846098558,1.726173267431444,-0.2992752194404602,0.2801215946674347,-10.721235275268555,754625.0336071072,479567.7029236342,506151.67273369024,-1.9749340108819766
-0.022348727719294564,0.07875266116749101,1.712338278726537,-0.17477671802043915,-0.011971008032560349,-10.453084945678711,738232.9657858497,495783.93021745567,521571.84592131164,0.0
-0.010642251790281838,0.05001858445462194,1.6931822941636514,-0.33518823981285095,0.49799394607543945,-10.81460952758789,693255.1412204549,512078.81491091877,578778.3187045276,7.594643368591445
0.008513801432225472,0.0915233674770184,1.68147583695999,-0.40701428055763245,0.12928688526153564,-10.656591415405273,705016.729624035,552289.8077579793,586484.4487955266,9.462322208025617
-0.003192675537084552,0.098972944770513,1.6665766490834872,-0.13168109953403473,0.17717093229293823,-10.15141487121582,675005.3349380069,560274.320361692,615924.1520735625,17.81888891452278
-0.01915605322250731,0.07343154047383658,1.6474205313625476,-0.10773907601833344,0.031124621629714966,-10.445901870727539,667943.9773546392,628652.1669652995,682450.726587304,19.025606037568682
-0.028734078793463663,0.07023885973526553,1.6303929451428534,-0.4357447028160095,0.06464344263076782,-10.948684692382812,659052.4180394656,681967.203467863,708327.2831789275,29.981639368849336
-0.017027602864450944,0.08726646259971647,1.6133653589231591,-0.23942017555236816,0.1604115068912506,-10.862493515014648,616915.5992241929,699173.9756024679,699354.0895910077,35.3112134396332
0.001064225179028184,0.04469745543858913,1.5963377727034649,-0.08619125932455063,0.13168109953403473,-10.335768699645996,586534.6121958278,766697.866378368,749169.8674720903,43.66778014613036
0.011706476969310023,0.0723673080127273,1.5793101864837706,-0.07661445438861847,0.3519476354122162,-10.579977035522461,584003.3234834423,806948.1979986209,777769.1422399678,53.13010235415598
-0.005321125895140919,0.06385351074169103,1.569732127623301,-0.18914192914962769,0.31842881441116333,-10.769119262695312,587490.2482458373,846631.0931869806,767091.5350484921,64.29004621918874
-0.021284503580563677,0.06066083416430918,1.5580256704196396,-0.26575639843940735,0.31842881441116333,-10.833763122558594,532733.491222797,861667.5490960596,767473.8653290721,68.55226367289465
-0.0,0.06385351074169103,1.551640342232011,0.05027823522686958,0.021547814831137657,-10.429142951965332,557845.2275400962,941349.9493556214,796337.5238657896,72.75854060106002
-0.03405520572890189,0.04682590787724009,1.5324842245110712,-0.38067805767059326,0.14365209639072418,-10.927136421203613,525308.29739586,979478.6252968139,803293.6695557742,80.53767779197439
-0.014899152506394574,0.039376330583745504,1.5239704979802513,0.07900865375995636,-0.004788403399288654,-10.225635528564453,513177.1176470938,998807.0093049096,815963.6071908617,86.30861401354873
0.01383492732736639,0.09045914333828754,1.5122640407765902,0.026336219161748886,0.038307227194309235,-10.089165687561035,514317.54922283394,1048970.5713447705,823697.2490009435,95.71059313749964
-0.009578026611253655,0.0457616837385092,1.5005574504148742,-0.011971008032560349,-0.38067805767059326,-9.962273597717285,482723.2569869398,1047588.5402001573,788602.7163055723,101.6893691754392
0.009578026611253655,0.06811041145780378,1.4877867940396174,-0.08619125932455063,-0.35913026332855225,-9.72285270690918,495321.3170631006,1086694.7730122553,790540.0419439911,103.57043438516149
0.017027602864450944,0.06704618731907289,1.485658395696426,0.021547814831137657,-0.1149216815829277,-9.677363395690918,468577.1760438886,1081623.8742658547,770810.6766585181,113.19859051364818
0.02766985465473278,0.08620223846098558,1.4728876061631146,-0.3519476354122162,-0.11013327538967133,-10.551246643066406,512938.2005501865,1119172.0789266329,757864.4732119988,118.30075576600638
-0.017027602864450944,0.061725058303040065,1.4558600199434204,-0.1867477297782898,-0.10055647045373917,-10.517727851867676,514936.9809329632,1131294.9656619905,748536.4679395417,119.98163936884934
0.014899152506394574,0.07343154047383658,1.4377682345521305,-0.18914192914962769,0.08379705995321274,-10.002974510192871,493800.83151874307,1112794.1596308108,712309.6311988519,125.31121343963319
-0.009578026611253655,0.057468157586927325,1.4271259765200648,-0.016759412363171577,0.06703764945268631,-10.491392135620117,505988.76537866535,1139037.9236616425,737026.3567051312,136.33221985386965
0.006385351074169104,0.06278928660296015,1.412226788643562,-0.05746084079146385,0.16998831927776337,-10.539276123046875,508071.8335332131,1149690.7803717395,702709.3292991375,137.72631099390625
-0.024477178077350926,0.04044055472247639,1.395199202423868,-0.26336219906806946,0.12210428714752197,-10.78348445892334,526709.9824793746,1151293.5699201697,654076.9140075926,151.69924423399362
-0.0457616837385092,0.026605628435407296,1.3845569443918024,-0.10773907601833344,0.22026655077934265,-11.159374237060547,514090.04767276085,1149123.3430618253,663432.442755144,156.03751102542182
-0.0659819590191528,0.028734078793463663,1.3749788855313323,-0.06464344263076782,-0.1867477297782898,-11.092336654663086,588910.6884587342,1127783.892350152,626764.2956928707,160.3461759419467
-0.011706476969310023,0.04895435615470185,1.3590154984832339,-0.1843535304069519,-0.10534487664699554,-10.170568466186523,586732.7725161982,1135324.5438347233,595197.5028668809,166.4295656148385
-0.01383492732736639,0.04682590787724009,1.3441164437647857,-0.23702596127986908,-0.10773907601833344,-10.453084945678711,574870.7737514444,1123413.2793650066,572690.3821130414,172.40535663140858
0.031926755370845515,0.058532385886847414,1.3419879122635399,0.05506663769483566,-0.28730419278144836,-10.139444351196289,598622.4986526703,1100193.7250677038,555328.9288292772,174.28940686250036
-0.009578026611253655,0.06385351074169103,1.3292172558882827,-0.12928688526153564,0.1412578970193863,-10.862493515014648,614935.9392555776,1075341.306615014,513814.9215235325,-178.1523897340054
-0.0,0.08620223846098558,1.3185749978562171,-0.05985504388809204,-0.24899697303771973,-10.283096313476562,610270.5846004358,1049260.5550096612,488261.73537148006,-170.21759296819272
-0.003192675537084552,0.07555998875129835,1.3143180680117799,0.0933738648891449,0.10773907601833344,-10.630255699157715,625237.0149590486,1040950.1588220742,460494.95547725674,-164.57783868126134
-0.003192675537084552,0.05001858445462194,1.3036758099797143,-0.24899697303771973,-0.15083470940589905,-10.314221382141113,631203.7558651664,986448.8801696452,429267.83514498256,-162.18111108547723
-0.018091827003181824,0.0329909795095764,1.2940977511192444,-0.28969839215278625,-0.06464344263076782,-10.572794914245605,683956.4537379816,967651.3688306616,392777.10873323167,-150.94539590092285
0.003192675537084552,0.02979830501278915,1.2813270947439874,-0.5051765441894531,-0.05746084079146385,-10.836156845092773,658963.8858640323,969007.0439038358,387603.92251990794,-150.75117366345305
-0.002128450358056368,0.021284503580563677,1.2728133682131675,-0.2944868206977844,-0.0454898327589035,-10.678139686584473,675377.9254761449,915854.9047291238,360890.9029430126,-141.63251461513846
-0.02766985465473278,0.03831210644501462,1.262171110181102,-0.1628057211637497,0.07661445438861847,-10.579977035522461,714253.1512553401,901597.4165177888,367950.3366450336,-139.1849161251184
-0.008513801432225472,0.047890132015970976,1.2483361214761948,-0.2992752194404602,-0.06224924325942993,-10.63504409790039,725213.9151860649,882456.254684864,338944.59194641496,-131.0090869015702
-0.03405520572890189,0.09471603989321106,1.2323727344280964,-0.181959331035614,0.23942017555236816,-10.465055465698242,724413.1850372251,823104.1038325395,302232.71568980155,-126.86989764584402
0.014899152506394574,0.07449576461256747,1.2291801369133093,-0.26096799969673157,0.07661445438861847,-10.54406452178955,735707.8934844531,804880.5262990389,295331.5941161008,-124.21570213243739
-0.008513801432225472,0.01383492732736639,1.2217304763960306,-0.22026655077934265,-0.040701430290937424,-10.321403503417969,737728.5486363417,780067.4539592855,274710.74835879967,-118.30075576600638
-0.025541404296676416,0.047890132015970976,1.2196020780528394,-0.026336219161748886,0.014365210197865963,-10.046070098876953,803942.8394647443,753973.6185551502,268532.09176474606,-113.96248897457819
0.005321125895140919,0.08194534190606206,1.2121524175355607,-0.19871874153614044,-0.15322890877723694,-10.211270332336426,772527.6808329666,732928.0987033132,274332.3848228688,-107.81888891452277
-0.014899152506394574,0.07662421289002924,1.1961891636455166,-0.2777273952960968,0.08858546614646912,-10.944014549255371,822618.9865115053,691810.8435556506,248396.87200234627,-99.7824070318073
-0.007449550245764766,0.05001858445462194,1.1951248313158667,-0.31603461503982544,0.1364694982767105,-10.910377502441406,765559.4888701452,643456.0910935588,244604.76358504128,-97.85331330197822
-0.004256900716112736,0.0595966100255783,1.1887395031282382,-0.17477671802043915,0.004788403399288654,-10.335768699645996,815140.2593008062,617776.0937859323,226647.6508002587,-88.09084756700362
-0.015963377685422758,0.07023885973526553,1.1823541749406097,-0.2753331959247589,0.07182604819536209,-11.034875869750977,832222.0970926079,566459.0913334776,244143.84792027067,-88.09084756700362
-0.011706476969310023,0.035119429867632765,1.1834183741122053,-0.1173158809542656,-0.035913024097681046,-10.488997459411621,862312.1213236714,567110.7668155605,240797.96271411752,-82.14668669802178
-0.022348727719294564,0.02979830501278915,1.1812899757690138,-0.20350714027881622,-0.12210428714752197,-10.342951774597168,817277.5458240941,537833.5227388191,260617.75752948888,-76.42956561483852
-0.006385351074169104,0.05640393344819645,1.1770330459245768,-0.36152446269989014,0.016759412363171577,-10.632649421691895,874706.630304132,526648.8808330735,244033.82221646537,-68.55226367289465
-0.002128450358056368,0.09578026403194195,1.1780972450961724,-0.2537853717803955,-0.090979665517807,-10.551246643066406,799071.4900074757,512157.22613845137,275177.93895085127,-66.03751102542182
-0.001064225179028184,0.06704618731907289,1.1674549870641069,-0.16998831927776337,-0.004788403399288654,-10.165780067443848,852991.7757289776,498225.57670396724,280564.4247316579,-63.43494882292201
-0.003192675537084552,0.0659819590191528,1.1578769282036367,-0.28969839215278625,-0.06464344263076782,-11.267112731933594,843796.3562996605,500272.2642763753,292938.4888197791,-57.38075692880717
-0.03831210644501462,0.04044055472247639,1.1578769282036367,-0.2585737705230713,0.26575639843940735,-10.886435508728027,849931.0998804276,444575.38140732155,308252.62285380054,-51.63251461513847
0.009578026611253655,0.04469745543858913,1.1514916000160083,-0.19632454216480255,0.21547815203666687,-11.042057991027832,825875.5098406451,416526.54648098204,312111.60411773756,-50.71059313749964
-0.012770702148338208,0.047890132015970976,1.15468433068885,-0.2561795711517334,0.2106897532939911,-11.118672370910645,837984.8121225717,434134.0781814376,310734.5114049286,-42.27368900609374
-0.010642251790281838,0.05640393344819645,1.1568127290320411,-0.2992752194404602,-0.031124621629714966,-11.085153579711914,820812.9297568052,497027.2132335712,369310.1719920535,-36.86989764584402
0.012770702148338208,0.04895435615470185,1.1557485298604453,-0.09816227108240128,0.019153613597154617,-10.278307914733887,809399.0547136669,434212.73645910004,352520.81558516313,-31.6075022462489
-0.005321125895140919,0.06066083416430918,1.153620131517254,-0.19632454216480255,-0.0071826050989329815,-10.65898609161377,815815.9820734842,466720.13286050677,392630.2050995341,-28.30075576600638
-0.002128450358056368,0.06704618731907289,1.153620131517254,-0.19632454216480255,-0.0694318488240242,-10.611102104187012,795936.893318377,443253.4401135437,418727.9926028241,-25.709953780811265
-0.017027602864450944,0.035119429867632765,1.1461630141489232,-0.24660277366638184,-0.019153613597154617,-10.393229484558105,833386.4808232979,436901.80754529,413440.8322796068,-22.16634582208246
-0.012770702148338208,0.08726646259971647,1.13659254529756,-0.14844051003456116,-0.0454898327589035,-10.740388870239258,792938.7257202214,425069.18820679124,432720.00478068,-13.570434385161485
-0.012770702148338208,0.07023885973526553,1.1259502872654943,-0.07661445438861847,0.14844051003456116,-10.524910926818848,770612.7310519412,440382.8468831034,462428.0527678016,-11.309932474020213
-0.01383492732736639,0.0915233674770184,1.1185006267482158,-0.17717093229293823,0.1149216815829277,-10.381258964538574,739153.7255625852,493209.1397182222,490814.01704287453,-3.8140748342903543
-0.01915605322250731,0.04044055472247639,1.1046657046223358,-0.1149216815829277,0.05267243832349777,-10.819397926330566,750768.517499526,499424.1845904309,537205.3476512526,-1.8476102659945959
-0.009578026611253655,0.03618365400636365,1.0982803764347073,-0.14604631066322327,0.13407529890537262,-10.493785858154297,769911.5466438035,495695.9536786037,531677.357702909,5.710593137499642
0.005321125895140919,0.0723673080127273,1.0855096534804232,-0.040701430290937424,-0.011971008032560349,-10.491392135620117,760857.1646295642,541844.7886306398,556449.1006957446,9.462322208025617
-0.008513801432225472,0.02766985465473278,1.076995860370576,0.047884032130241394,0.0694318488240242,-10.718840599060059,712213.374027372,538120.2733046904,583438.3672038675,13.570434385161485
-0.020220277361238194,0.06491773488042192,1.0652894031669147,-0.05267243832349777,0.004788403399288654,-10.594342231750488,711029.1890330085,561828.5641457064,598290.4118734653,21.44773632710535
-0.024477178077350926,0.0659819590191528,1.050390281869439,-0.2968810200691223,0.2753331959247589,-10.989385604858398,720289.3784762969,591939.1007898325,643197.9845989473,20.77225468204583
-0.008513801432225472,0.0713030838739964,1.037619558915155,-0.16519992053508759,-0.090979665517807,-10.45547866821289,648418.3577070282,572475.8187155746,648382.4382263737,27.407575437818405
-0.005321125895140919,0.02979830501278915,1.022720371038652,0.026336219161748886,0.21787235140800476,-10.735600471496582,673978.3138980685,601255.0080834858,682963.8470352844,32.61924307119283
0.010642251790281838,0.03724788230628374,1.0078212497411767,-0.021547814831137657,-0.05985504388809204,-10.651803016662598,630983.1459433754,656502.4559616046,691052.3028222234,36.86989764584402
-0.009578026611253655,0.061725058303040065,0.9939863276152967,-0.10055647045373917,-0.0694318488240242,-10.431536674499512,631146.0648138963,663668.6823645569,692157.1092968183,40.81508387488159
-0.012770702148338208,0.057468157586927325,0.9758944756449797,-0.035913024097681046,-0.12689268589019775,-10.383652687072754,621928.6687934907,702651.3116228272,715824.0599634178,43.66778014613036
-0.011706476969310023,0.057468157586927325,0.956738424503067,-0.08379705995321274,-0.07422025501728058,-10.1753568649292,617993.6180909987,713871.5612748256,720783.8968563356,50.19442890773481
0.002128450358056368,0.06917463559653465,0.9407750374549685,-0.07182604819536209,0.09576806426048279,-10.271124839782715,595482.8277501256,758954.9083787157,760679.9787065007,59.03624346792648
0.004256900716112736,0.035119429867632765,0.9184263222192415,0.019153613597154617,-0.11971008777618408,-10.697293281555176,608591.5220515503,782623.8810322931,754638.8707497026,62.59242456218159
-0.011706476969310023,0.04895435615470185,0.8971418061551102,0.06703764945268631,-0.08379705995321274,-10.517727851867676,580578.8110589393,802731.2327381326,774750.5723673912,62.59242456218159
0.011706476969310023,0.05214703273208371,0.8843711497798533,-0.047884032130241394,-0.14365209639072418,-10.405200958251953,564271.031712879,817477.4760073154,765181.732737962,66.03751102542182
0.006385351074169104,0.05533970930946556,0.863086633715722,-0.023942016065120697,0.09816227108240128,-10.290278434753418,560987.6558277024,857362.6321491442,774560.8001138999,72.75854060106002
-0.0,0.057468157586927325,0.8513801099330335,0.033518824726343155,-0.16998831927776337,-10.563218116760254,552465.7840291699,851138.3166489766,780061.2818552438,72.18111108547723
-0.011706476969310023,0.06704618731907289,0.8322240587911207,0.028730420395731926,-0.038307227194309235,-10.366893768310547,564653.6218644998,877382.0321685568,804778.006388993,76.86597769360368
0.010642251790281838,0.04150478302239647,0.814132273399831,0.033518824726343155,-0.06464344263076782,-10.584765434265137,555357.6911023209,907728.4530708551,802351.1271276711,82.40535663140857
-0.022348727719294564,0.0457616837385092,0.7949762222579183,-0.10295066982507706,-0.0071826050989329815,-10.63743782043457,526345.6864028305,921774.3623831093,827126.815014512,86.30861401354873
-0.007449576253197287,0.04363323129985824,0.782205499303634,-0.1364694982767105,-0.021547814831137657,-10.680533409118652,527670.9135043012,942168.2596542187,824672.4310582735,88.09084756700362
-0.007449576253197287,0.05108280859335283,0.764113647333317,-0.11971008777618408,-0.016759412363171577,-10.611102104187012,520373.76205043064,984637.4748516207,812917.5255992025,93.81407483429037
-0.009578026611253655,0.03724788230628374,0.7481503268642458,0.10295066982507706,-0.1364694982767105,-10.524910926818848,517134.1397693988,950650.8013323884,799710.9122998639,99.7824070318073
-0.002128450358056368,0.0457616837385092,0.7375080688321802,0.009576806798577309,-0.07900865375995636,-10.539276123046875,524124.11221597524,1003186.8929180139,818145.7084209691,99.7824070318073
-0.001064225179028184,0.04363323129985824,0.7194162168618631,-0.08619125932455063,-0.10295066982507706,-10.369287490844727,516416.83558167587,1032793.6848957608,829170.2098539245,104.03624346792648
-0.002128450358056368,0.05214703273208371,0.7055812947359832,-0.10534487664699554,-0.002394201699644327,-10.57040023803711,453138.11007074325,1041605.7776714417,835053.0254879585,105.42216131873867
-0.008513801432225472,0.03405520572890189,0.6981317007977318,0.090979665517807,-0.07422025501728058,-10.721235275268555,503292.0193942742,1035954.4565948889,795421.3143308318,107.24145939893998
-0.001064225179028184,0.057468157586927325,0.6917463726101033,0.047884032130241394,-0.004788403399288654,-10.57040023803711,518825.7397766882,1057778.9497281723,797062.7929575949,113.96248897457819
0.002128450358056368,0.04044055472247639,0.6768471847336005,0.05027823522686958,-0.10534487664699554,-10.335768699645996,499497.9166603948,1091276.913751168,812778.8192085077,113.96248897457819
0.007449576253197287,0.05214703273208371,0.6662049932805622,-0.05267243832349777,-0.07422025501728058,-10.56800651550293,482538.46116748435,1077358.252286562,798790.7582653387,115.70995378081126
-0.015963377685422758,0.03831210644501462,0.6459846763880266,-0.0071826050989329815,-0.08140286058187485,-10.436325073242188,473343.03708479676,1079404.9460051153,811164.8544459412,119.98163936884934
-0.005321125895140919,0.039376330583745504,0.6342782191843652,-0.16759411990642548,0.08379705995321274,-10.802638053894043,443904.6883358161,1107418.176134842,818929.9655504742,122.61924307119284
-0.003192675537084552,0.03724788230628374,0.6151221680424525,-0.033518824726343155,-0.1388636976480484,-10.500968933105469,470165.827806424,1080884.2015357336,784262.05949791,122.61924307119284
-0.0,0.042569007161127354,0.599158780994354,-0.026336219161748886,-0.07900865375995636,-10.529699325561523,509024.9316996425,1093456.4576771033,751531.4897200402,128.04704253182607
-0.008513801432225472,0.03831210644501462,0.589580722133884,-0.07182604819536209,-0.15083470940589905,-10.90558910369873,529330.269739637,1102955.8967554127,742444.3047562231,130.8150838748816
0.006385351074169104,0.05214703273208371,0.5757458000080041,-0.021547814831137657,-0.16759411990642548,-10.503362655639648,474489.22320559004,1119462.2911275188,767815.6408296877,130.8150838748816
0.014899152506394574,0.04682590787724009,0.5629751436327471,0.033518824726343155,-0.2298433631658554,-10.488997459411621,485677.6724225753,1139644.6550611586,797196.3854864774,140.4403320310055
0.002128450358056368,0.04469745543858913,0.5512686531395723,-0.009576806798577309,0.06464344263076782,-10.754754066467285,517199.0893261037,1122284.281641529,755114.2469759507,141.63251461513846
0.010642251790281838,0.058532385886847414,0.541690627568616,0.05027823522686958,-0.24420857429504395,-10.101137161254883,510434.4474869393,1112380.323715674,724088.077326385,143.13010235415598
0.011706476969310023,0.03618365400636365,0.5321126019976595,-0.22505496442317963,-0.0454898327589035,-10.560823440551758,528045.5777140693,1154963.8917798628,742495.3693256536,145.7842978675626
0.003192675537084552,0.0457616837385092,0.529984137075441,-0.2106897532939911,-0.05027823522686958,-10.611102104187012,496133.557376515,1125834.5824699188,725086.2282732262,145.7842978675626
0.012770702148338208,0.04469745543858913,0.5225345764267032,-0.1867477297782898,-0.08379705995321274,-10.484209060668945,513084.9034348947,1153168.1159530885,719179.2973792276,148.39249775375112
0.008513801432225472,0.05001858445462194,0.5086996210113097,-0.15083470940589905,-0.08619125932455063,-10.647014617919922,503322.18762782903,1125079.8756671806,702145.1325993177,150.01836063115067
0.004256900716112736,0.04682590787724009,0.48954356986939696,0.05027823522686958,-0.13407529890537262,-10.467450141906738,527051.9438069697,1138796.32305696,696076.5328761991,152.5924245621816
0.001064225179028184,0.04363323129985824,0.46719485463367,-0.15083470940589905,-0.11013327538967133,-10.54645824432373,505483.88636322174,1144368.9660246847,693921.9302893726,153.434948822922
-0.002128450358056368,0.05640393344819645,0.46400219053985575,-0.11252748221158981,-0.016759412363171577,-10.548852920532227,538672.4896241965,1134905.1518897319,691385.0126428821,157.83365417791757
-0.011706476969310023,0.06811041145780378,0.446974571030648,-0.14365209639072418,-0.17956513166427612,-10.560823440551758,542507.129965515,1151984.6306150772,671624.185087124,160.3461759419467
0.014899152506394574,0.035119429867632765,0.4448461393979431,-0.009576806798577309,-0.4668693244457245,-10.433931350708008,530886.5820766689,1155875.7106590823,676315.691272109,164.05460409907712
-0.001064225179028184,0.04363323129985824,0.4342038813658774,0.031124621629714966,-0.24420857429504395,-10.539276123046875,545442.8869611279,1134702.9385694936,671328.3344633586,164.57783868126134
-0.0,0.054275485170734675,0.4203689592399975,-0.17238251864910126,-0.12689268589019775,-10.548852920532227,524795.4940116075,1137700.8354059977,638415.9252431769,166.8659776936037
0.007449576253197287,0.047890132015970976,0.4118551328406369,-0.014365210197865963,-0.24181437492370605,-10.572794914245605,492521.99089378,1154695.9851515293,661277.8355836773,166.8659776936037
0.006385351074169104,0.042569007161127354,0.4033413397307898,-0.2777273952960968,-0.07422025501728058,-10.486603736877441,486324.6401973223,1174926.9619984035,659659.930906184,170.53767779197437
0.004256900716112736,0.05001858445462194,0.3916348492376148,-0.06224924325942993,-0.11013327538967133,-10.599130630493164,534984.6478211366,1151821.7122624612,672460.6537295933,172.40535663140858
0.009578026611253655,0.04363323129985824,0.3884421851438006,-0.12689268589019775,-0.07182604819536209,-10.517727851867676,552971.1233568345,1124759.6873223048,619409.0265880004,172.40535663140858
0.003192675537084552,0.047890132015970976,0.37567149547903,0.047884032130241394,-0.13407529890537262,-10.575188636779785,523369.8541836188,1145606.622706662,626069.3206816894,176.30861401354872
0.009578026611253655,0.039376330583745504,0.3724787980957021,-0.07182604819536209,-0.09576806426048279,-10.522516250610352,533401.7489030774,1142455.1233915344,607926.4130243405,176.18592516570965
0.002128450358056368,0.047890132015970976,0.3703503664629972,-0.07661445438861847,-0.33997663855552673,-10.608707427978516,550361.2037312207,1156373.7857341613,621914.4785521495,180.0
0.012770702148338208,0.04469745543858913,0.36077234089204085,-0.20350714027881622,-0.07900865375995636,-10.500968933105469,555890.6621481534,1134307.7384358277,579323.1877052602,180.0
-0.0,0.03831210644501462,0.35119431532108447,-0.13168109953403473,-0.19632454216480255,-10.663774490356445,570525.5002206716,1121771.106359793,600429.6502881822,180.0
-0.001064225179028184,0.039376330583745504,0.3416162897501281,0.05027823522686958,-0.1388636976480484,-10.505757331848145,562003.6297516736,1115546.7891035841,605930.1228602458,-178.09084756700364
0.002128450358056368,0.04044055472247639,0.335230928272986,-0.016759412363171577,-0.23942017555236816,-10.488997459411621,562655.3031621372,1144211.6035921706,610349.3347102937,-176.05481377096245
0.004256900716112736,0.03724788230628374,0.3235244377798111,-0.009576806798577309,-0.24660277366638184,-10.611102104187012,575707.2450529827,1122308.4728904115,566921.5660516548,-172.40535663140858
-0.005321125895140919,0.06278928660296015,0.32033177368599686,-0.17717093229293823,-0.19871874153614044,-10.54406452178955,570772.7080842941,1127467.3715189127,576545.4474578096,-172.64762064010765
0.001064225179028184,0.04150478302239647,0.31288221303725905,-0.1173158809542656,-0.07900865375995636,-10.56800651550293,554649.7245576892,1112443.902701691,556788.565868614,-172.40535663140858
0.005321125895140919,0.039376330583745504,0.3096895156539312,-0.05027823522686958,-0.2585737705230713,-10.474632263183594,567858.9262033727,1107813.1472935022,565548.4287691001,-170.21759296819272
0.007449576253197287,0.04363323129985824,0.30543261909900765,-0.11971008777618408,-0.17238251864910126,-10.63743782043457,580663.6568294419,1080213.6620654422,546004.8580617822,-170.53767779197437
0.01383492732736639,0.039376330583745504,0.2969188259891606,-0.08858546614646912,-0.2561795711517334,-10.395624160766602,603719.8603920438,1102201.1191129528,546809.8750702421,-166.4295656148385
0.009578026611253655,0.03831210644501462,0.294790361066942,-0.10055647045373917,-0.15562310814857483,-10.591948509216309,589511.3647457565,1100770.479445209,542714.0146323547,-166.4295656148385
0.005321125895140919,0.04044055472247639,0.28414813632439,-0.05985504388809204,-0.28969839215278625,-10.520122528076172,597196.7652427506,1108099.6014199716,542982.3489523975,-166.4295656148385
-0.001064225179028184,0.05001858445462194,0.2713774133701058,-0.0694318488240242,-0.19871874153614044,-10.575188636779785,587759.7925589859,1094343.8574299607,528157.8147821192,-164.05460409907712
0.010642251790281838,0.04363323129985824,0.2575424912442259,-0.0933738648891449,-0.19153612852096558,-10.512939453125,618686.2880915876,1093890.7264374485,519043.1135145795,-162.75854060106005
0.002128450358056368,0.04363323129985824,0.2373222076412039,-0.07182604819536209,-0.10773907601833344,-10.539276123046875,624946.0508322124,1109125.7268360984,506964.8573214666,-160.97439396243132
0.002128450358056368,0.04363323129985824,0.23625799182485144,-0.06224924325942993,-0.1412578970193863,-10.54406452178955,595877.295793762,1077599.623916239,494353.8985547985,-160.3461759419467
0.007449576253197287,0.04363323129985824,0.23200109526992788,-0.08619125932455063,-0.1388636976480484,-10.577583312988281,1529845.9972521905,1084199.4116757454,426862.31285823905,-156.80140948635182
0.006385351074169104,0.042569007161127354,0.22242306969897155,-0.12449848651885986,-0.15322890877723694,-10.60391902923584,612263.6069983469,1071489.5224166522,530016.5667451804,-158.55226367289467
0.009578026611253655,0.042569007161127354,0.21497349240547695,-0.0454898327589035,-0.15562310814857483,-10.500968933105469,593878.5144138343,1065476.7384979127,503681.9107042159,-158.55226367289467
0.004256900716112736,0.04150478302239647,0.21178081166690588,-0.05746084079146385,-0.13168109953403473,-10.56800651550293,597302.9335501314,1069693.7454923517,506700.48906795407,-156.03751102542182
0.004256900716112736,0.04363323129985824,0.20645968265087306,-0.05506663769483566,-0.181959331035614,-10.5344877243042,613773.6312488075,1062113.7058453155,517374.1316598951,-154.29004621918875
0.002128450358056368,0.04682590787724009,0.18623939904785106,-0.12449848651885986,-0.09576806426048279,-10.623072624206543,632164.5737381985,1058020.3222358697,492625.93783169484,-154.29004621918875
0.008513801432225472,0.04469745543858913,0.18198250249292755,-0.05027823522686958,-0.15801730751991272,-10.563218116760254,615957.2057891217,1044466.8826893205,497858.095889272,-154.29004621918875
0.009578026611253655,0.0457616837385092,0.17772560593800402,-0.047884032130241394,-0.17956513166427612,-10.505757331848145,643111.570672424,1062400.249654544,494808.0369166878,-150.94539590092285
0.004256900716112736,0.04044055472247639,0.17772560593800402,-0.038307227194309235,-0.12689268589019775,-10.579977035522461,616619.8192625395,1054663.73756759,496630.87610890035,-151.69924423399362
0.002128450358056368,0.039376330583745504,0.16708334790593835,-0.10773907601833344,-0.1604115068912506,-10.496180534362793,602158.8403476762,1055898.7065347184,470982.808075683,-152.5924245621816
0.006385351074169104,0.03405520572890189,0.15750532233498202,-0.0694318488240242,-0.15322890877723694,-10.553641319274902,639282.589593651,1035214.5983797542,463486.0312911927,-150.01836063115067
0.003192675537084552,0.039376330583745504,0.1447346160254546,-0.07661445438861847,-0.08858546614646912,-10.565611839294434,597224.3996199875,1061057.5125995327,480606.6464586694,-150.01836063115067
0.006385351074169104,0.03724788230628374,0.15963377061244377,-0.05746084079146385,-0.10055647045373917,-10.60152530670166,618792.4563989684,1055484.8705098287,482761.253630136,-150.01836063115067
0.008513801432225472,0.04044055472247639,0.1830467349540368,-0.12689268589019775,-0.12449848651885986,-10.613495826721191,657325.8179109708,1053724.7232345662,447821.0764602469,-148.39249775375112
0.002128450358056368,0.04044055472247639,0.20007433781848777,0.002394201699644327,-0.06703764945268631,-10.587160110473633,627684.0149025122,1002169.8585441124,456884.70971987594,-149.34933204294714
-0.0,0.04895435615470185,0.20113855363484023,-0.090979665517807,-0.1412578970193863,-10.503362655639648,648315.1889829712,1026001.7057447358,450007.135265723,-148.39249775375112
0.006385351074169104,0.04150478302239647,0.1713402611056187,-0.1412578970193863,-0.26096799969673157,-10.548852920532227,610944.1375493582,1040989.5449129196,481388.1163475814,-146.82148834060726
0.007449576253197287,0.039376330583745504,0.13728504705433842,-0.11013327538967133,-0.19393034279346466,-10.556035041809082,627499.2170114374,1031939.4795072943,467072.73763131053,-145.7842978675626
0.011706476969310023,0.03831210644501462,0.06811041145780378,-0.07661445438861847,-0.22744916379451752,-10.582371711730957,611702.0722616836,1031248.5090575886,449525.4760154708,-144.6887865603668
0.006385351074169104,0.039376330583745504,-0.025541404296676416,-0.13168109953403473,-0.22505496442317963,-10.553641319274902,629172.159614514,1029729.8665581042,455535.10550853726,-144.6887865603668
0.005321125895140919,0.04044055472247639,-0.014899152506394574,-0.043095629662275314,-0.11971008777618408,-10.556035041809082,622323.134765508,1021295.9360371274,449497.96576338384,-145.7842978675626
0.004256900716112736,0.04150478302239647,0.020220277361238194,-0.12689268589019775,-0.09576806426048279,-10.584765434265137,640955.5295376587,1033004.9889426472,451948.4175069802,-140.4403320310055
0.008513801432225472,0.04150478302239647,0.009578026611253655,-0.09816227108240128,-0.26575639843940735,-10.587160110473633,656326.4261851973,1047663.2349637916,452485.0755107897,-144.6887865603668
0.009578026611253655,0.03724788230628374,-0.020220277361238194,-0.07422025501728058,-0.1412578970193863,-10.551246643066406,619145.924822368,1022775.1924457664,422595.17539999273,-143.53076560994813
0.007449576253197287,0.03405520572890189,-0.042569007161127354,-0.0933738648891449,-0.16519992053508759,-10.563218116760254,625747.6468962862,1025512.9486152688,452516.5518294068,-144.6887865603668
0.009578026611253655,0.03618365400636365,-0.10003716890924388,-0.21547815203666687,-0.33279404044151306,-10.560823440551758,598082.7457292965,1023016.7939284698,463545.003813565,-144.6887865603668
0.01383492732736639,0.03831210644501462,-0.23625799182485144,-0.090979665517807,-0.26336219906806946,-10.556035041809082,640281.9792478052,1041275.9955273059,458822.0181923181,-144.6887865603668
0.018091827003181824,0.028734078793463663,-0.2894692320509092,-0.0071826050989329815,-0.24660277366638184,-10.484209060668945,617203.9002899829,1056224.5453115695,469309.8601544685,-141.63251461513846
0.007449576253197287,0.042569007161127354,-0.21923038896040048,0.0933738648891449,0.17238251864910126,-10.508151054382324,599160.6693135943,1037714.4239688403,484974.83332397504,-144.24611274556327
0.001064225179028184,0.042569007161127354,-0.005321125895140919,0.2513911724090576,0.08140286058187485,-10.579977035522461,626988.5871458191,1047376.7808373225,475051.15532749234,-145.7842978675626
0.015963377685422758,0.0329909795095764,0.20113855363484023,0.12210428714752197,-0.05027823522686958,-10.551246643066406,621891.1297528954,1045369.384720454,483570.2197228033,-145.7842978675626
0.005321125895140919,0.03831210644501462,0.33203826417917176,-0.021547814831137657,-0.047884032130241394,-10.505757331848145,637531.1130604306,1028787.9784361252,448929.82080468134,-146.82148834060726
-0.003192675537084552,0.047890132015970976,0.395891779082052,-0.028730420395731926,0.002394201699644327,-10.558429718017578,602506.5545197475,1033295.1980704605,461899.56907842855,-148.39249775375112
0.002128450358056368,0.0457616837385092,0.4054698046530083,-0.10773907601833344,-0.1412578970193863,-10.491392135620117,638204.6660093531,1020516.9683393835,442056.20178078266,-146.82148834060726
0.002128450358056368,0.042569007161127354,0.3416162897501281,-0.21308395266532898,-0.14365209639072418,-10.587160110473633,664381.4203927217,995453.023888968,432377.3399596313,-147.3807569288072
0.005321125895140919,0.04363323129985824,0.2628636202602587,-0.20350714027881622,-0.2849099934101105,-10.556035041809082,626668.4069667463,1022938.1107983823,421758.70675752335,-146.82148834060726
0.005321125895140919,0.03618365400636365,0.17772560593800402,-0.2801215946674347,-0.2322375625371933,-10.560823440551758,662034.9274997917,1005933.6434228165,450788.5727677425,-147.3807569288072
0.003192675537084552,0.04150478302239647,-0.01915605322250731,-0.17717093229293823,-0.2537853717803955,-10.469843864440918,663034.3144948769,1011995.0440824513,446124.5780074285,-143.53076560994813
0.008513801432225472,0.04044055472247639,-0.20433123437341133,-0.23702596127986908,-0.21308395266532898,-10.599130630493164,670315.3464281146,996355.6170433245,418089.47784149443,-143.13010235415598
0.009578026611253655,0.030862529151520032,-0.3022399550051934,-0.17717093229293823,-0.15562310814857483,-10.60152530670166,624748.2599012009,1019451.5479556341,457180.54658972076,-140.4403320310055
0.008513801432225472,0.039376330583745504,-0.3256529027020297,-0.07182604819536209,-0.15083470940589905,-10.558429718017578,617472.9822192914,1024984.8053949564,434132.807522766,-140.4403320310055
0.014899152506394574,0.030862529151520032,-0.37673572794013926,-0.3447650372982025,-0.1843535304069519,-10.611102104187012,640708.3230035707,1027308.7220274861,475832.6111680724,-138.9909130984298
0.017027602864450944,0.031926755370845515,-0.41504783022396474,-0.035913024097681046,-0.1412578970193863,-10.498574256896973,635695.2521047383,1023831.3877631684,459362.6499649426,-138.9909130984298
0.005321125895140919,0.04469745543858913,-0.40866246874682266,-0.08140286058187485,0.13168109953403473,-10.52258014678955,628902.9793725865,1060969.607915181,490712.1871150764,-140.19442890773482
0.023412953938620047,0.020220277361238194,-0.418240494317779,-0.08379705995321274,-0.021547814831137657,-10.44350814819336,590560.2635849181,1022853.8755758537,464381.47245603433,-143.53076560994813
0.012770702148338208,0.02766985465473278,-0.4533599325077901,-0.18914192914962769,-0.2346317619085312,-10.520122528076172,619892.3531036561,1033246.5869132676,492898.2275819918,-143.13010235415598
0.007449576253197287,0.02979830501278915,-0.4395250103819102,-0.035913024097681046,-0.08858546614646912,-10.623072624206543,586703.7485131467,1042710.4028042619,495435.1543977626,-146.82148834060726
0.009578026611253655,0.03724788230628374,-0.30649685156011697,0.05746084079146385,-0.031124621629714966,-10.54645824432373,599828.5636647387,1039549.5855435225,529184.0428966895,-146.82148834060726
0.010642251790281838,0.042569007161127354,-0.21284502748325837,0.08619125932455063,-0.040701430290937424,-10.493785858154297,608249.9257536686,1074073.585299886,508882.59244317585,-148.39249775375112
0.008513801432225472,0.03831210644501462,-0.04044055472247639,0.1843535304069519,0.014365210197865963,-10.51054573059082,580337.8201242101,1065881.254821149,543795.2521367582,-151.69924423399362
0.008513801432225472,0.04150478302239647,0.1958174246188074,0.2106897532939911,0.011971008032560349,-10.599130630493164,587596.87420637,1087177.653807814,527053.0118196072,-152.5924245621816
0.011706476969310023,0.031926755370845515,0.426754287427626,0.07900865375995636,0.1604115068912506,-10.613495826721191,623294.9856959754,1074399.4240767371,507209.6445219614,-154.29004621918875
0.009578026611253655,0.04150478302239647,0.6576911335916878,0.021547814831137657,-0.047884032130241394,-10.651803016662598,621706.3339334399,1075139.0968068587,493758.2616825697,-156.03751102542182
-0.011706476969310023,0.05001858445462194,0.7864624291480712,-0.17956513166427612,0.22744916379451752,-10.57040023803711,595736.2528363664,1033497.4134623181,481956.2366216762,-154.29004621918875
-0.004256900716112736,0.02979830501278915,0.840737918479995,-0.14844051003456116,-0.11971008777618408,-10.702081680297852,617040.9798657477,1049058.2505662,468205.0431436247,-154.29004621918875
-0.005321125895140919,0.061725058303040065,0.846059047496028,-0.014365210197865963,-0.033518824726343155,-10.517727851867676,639630.3037657224,1012611.0899154963,454402.7922939383,-154.29004621918875
-0.001064225179028184,0.03618365400636365,0.8098753435553937,-0.18914192914962769,0.0071826050989329815,-10.539276123046875,643649.739261729,999920.8574324579,424453.92736305384,-148.39249775375112
-0.001064225179028184,0.06917463559653465,0.7992330855233282,-0.10534487664699554,0.10295066982507706,-10.539276123046875,647584.8839171944,988700.5651684878,419494.07739433437,-150.01836063115067
-0.007449576253197287,0.06811041145780378,0.7375080688321802,-0.4668693244457245,-0.47165772318840027,-10.577583312988281,655191.749896595,987393.5488857375,393668.60149198497,-145.7842978675626
0.010642251790281838,0.0595966100255783,0.3235244377798111,-0.07900865375995636,-0.35434186458587646,-10.11789608001709,685140.6392115912,943943.0538918087,377925.0536745906,-141.95295746817393
0.001064225179028184,0.05001858445462194,0.058532385886847414,-0.3974374830722809,-0.3232172429561615,-10.402806282043457,673946.4351558281,933866.9541932795,399627.18063758244,-136.33221985386965
0.008513801432225472,0.04150478302239647,-0.22880841453135684,-0.4812345504760742,-0.33997663855552673,-10.582371711730957,698327.9607313661,976248.2177042543,397977.7798359158,-132.27368900609375
0.017027602864450944,0.03405520572890189,-0.4884793706978013,-0.3926490843296051,-0.28730419278144836,-10.512939453125,685466.4769526327,958275.5066977136,380134.6666237805,-129.5596679689945
0.020220277361238194,0.03405520572890189,-0.6630122626077206,-0.26096799969673157,-0.15322890877723694,-10.532093048095703,669500.7515576063,960524.4622477568,412565.44195643667,-126.86989764584402
0.022348727719294564,-0.008513801432225472,-0.7364438030815573,-0.11971008777618408,-0.18914192914962769,-10.565611839294434,679184.9323987185,979976.4240792342,403505.75710289605,-126.86989764584402
0.021284503580563677,0.031926755370845515,-0.7258015450494916,-0.21787235140800476,-0.1412578970193863,-10.651803016662598,634454.3145142741,1001967.5520290319,436828.0281282964,-126.86989764584402
0.01383492732736639,0.04044055472247639,-0.6364066841065837,0.11971008777618408,-0.038307227194309235,-10.508151054382324,629109.6526588816,994263.9801202255,469231.3002330315,-126.86989764584402
-0.009578026611253655,0.0723673080127273,-0.4938004664243205,-0.0,0.05746084079146385,-10.503362655639648,640366.3630828275,1039806.0608919396,433833.010932438,-131.0090869015702
0.010642251790281838,0.039376330583745504,-0.4139835977628554,-0.014365210197865963,0.009576806798577309,-10.374075889587402,601911.6311545192,1050202.4431316403,494867.020075336,-136.33221985386965
0.01383492732736639,0.03831210644501462,-0.36928613400188787,0.033518824726343155,-0.23702596127986908,-10.5344877243042,585115.0946789919,1043449.9844111602,481983.757510039,-140.4403320310055
0.012770702148338208,0.039376330583745504,-0.3480016179377566,-0.035913024097681046,-0.07182604819536209,-10.462661743164062,637856.9518372817,1043120.4768036414,451139.4407780372,-144.6887865603668
0.014899152506394574,0.026605628435407296,-0.31288221303725905,-0.08140286058187485,0.035913024097681046,-10.532093048095703,597876.0751020703,1089722.4182113425,485025.8723570492,-143.13010235415598
0.017027602864450944,0.02979830501278915,-0.21178081166690588,-0.07422025501728058,-0.05985504388809204,-10.632649421691895,635610.867682266,1025301.4170338408,484351.68961171526,-144.6887865603668
0.006385351074169104,0.03405520572890189,-0.15537687405752024,0.08140286058187485,-0.090979665517807,-10.582371711730957,613369.2579543629,1039145.0692202863,489070.7014641472,-149.03624346792648
0.010642251790281838,0.039376330583745504,-0.057468157586927325,0.11252748221158981,-0.021547814831137657,-10.599130630493164,584694.0297293337,1049055.4734841697,510409.5798390389,-148.39249775375112
0.007449576253197287,0.03724788230628374,0.08194534190606206,0.038307227194309235,-0.033518824726343155,-10.57040023803711,633326.8817449686,1071247.9230055683,489066.7276953322,-149.03624346792648
0.005321125895140919,0.04044055472247639,0.2053954668345206,-0.014365210197865963,0.011971008032560349,-10.577583312988281,620117.6848299735,1075878.7660248969,480306.8605046173,-153.434948822922
0.001064225179028184,0.05214703273208371,0.35119431532108447,0.14604631066322327,-0.05506663769483566,-10.54406452178955,621380.4972282081,1060806.6895625652,491548.6557575457,-154.29004621918875
0.002128450358056368,0.07449576461256747,0.43846077792080096,0.023942016065120697,-0.15562310814857483,-10.453084945678711,600322.9773203644,1050942.0247385388,481415.62318761245,-151.82140989004085
0.012770702148338208,0.022348727719294564,0.5033785252847904,-0.028730420395731926,-0.09576806426048279,-10.472238540649414,629413.6118972738,1045532.3030730698,482733.7510803339,-150.94539590092285
-0.0,0.03831210644501462,0.5331768011692553,-0.07422025501728058,-0.09576806426048279,-10.54406452178955,626584.1181978243,1024408.1421406738,446747.73576802015,-150.94539590092285
0.002128450358056368,0.06278928660296015,0.5214703439655939,-0.11971008777618408,-0.07900865375995636,-10.47702693939209,605116.472815827,1001681.1014146457,459394.1262835597,-150.01836063115067
-0.001064225179028184,0.06704618731907289,0.43846077792080096,-0.10773907601833344,-0.30885201692581177,-10.579977035522461,647237.169745123,1011304.073632746,428577.3163915888,-148.39249775375112
-0.0,0.06385351074169103,0.3565154443371173,-0.2322375625371933,-0.17956513166427612,-10.481815338134766,660609.1940898721,1013839.5197750845,438441.99289086275,-147.3807569288072
0.006385351074169104,0.03724788230628374,0.24051488837977494,-0.2585737705230713,-0.2298433631658554,-10.589553833007812,655596.1231910395,1010362.1855107668,421972.03168773284,-146.82148834060726
0.008513801432225472,0.03831210644501462,0.12983546976084384,-0.181959331035614,-0.2298433631658554,-10.613495826721191,637715.9109515053,999018.3574729435,438741.79289324675,-145.1755108430432
0.004256900716112736,0.04044055472247639,0.015963377685422758,-0.19871874153614044,-0.22505496442317963,-10.520122528076172,687600.6379614896,1024606.6866302446,434287.1492943273,-141.63251461513846
0.009578026611253655,0.03831210644501462,-0.0979087123094037,-0.2944868206977844,-0.21308395266532898,-10.615890502929688,650357.7232249588,964252.6686227368,418093.4192234169,-141.63251461513846
0.010642251790281838,0.03724788230628374,-0.2511571464118406,-0.31842881441116333,-0.28969839215278625,-10.551246643066406,632781.3719111976,1004177.1649782218,448365.6602510697,-138.9909130984298
0.01383492732736639,0.03618365400636365,-0.44058920955350594,-0.2561795711517334,-0.19871874153614044,-10.405200958251953,615148.3688648202,998529.6003434766,441251.2094569305,-138.9909130984298
0.012770702148338208,0.03618365400636365,-0.4682590870947793,-0.0454898327589035,-0.07661445438861847,-10.589553833007812,651172.3170596574,1000083.7778566931,423617.44808430865,-139.1849161251184
0.018091827003181824,0.047890132015970976,-0.4650663897114515,-0.06224924325942993,-0.1628057211637497,-10.47942066192627,615042.2005574395,1036935.4562710964,477533.0693413739,-136.39718102729637
0.008513801432225472,0.035119429867632765,-0.4608094931565279,-0.033518824726343155,-0.19393034279346466,-10.529699325561523,623401.1540033561,1035993.5681491174,470927.784637518,-137.72631099390625
0.012770702148338208,0.04682590787724009,-0.45761682906271367,-0.026336219161748886,-0.047884032130241394,-10.474632263183594,623216.3581839007,1065763.280235522,481115.82659728447,-141.95295746817393
0.017027602864450944,0.023412953938620047,-0.44910303595286655,-0.06464344263076782,-0.06703764945268631,-10.606313705444336,620381.1081615037,1054745.1977797076,496212.6364695278,-141.95295746817393
0.01383492732736639,0.028734078793463663,-0.4448461393979431,-0.1628057211637497,-0.1412578970193863,-10.654197692871094,601322.369046138,1057003.5130093133,476751.6241370696,-147.3807569288072
0.003192675537084552,0.014899152506394574,-0.4373965454596917,-0.21547815203666687,-0.07661445438861847,-10.893617630004883,652306.9927608101,1060353.558570053,482433.9544900059,-146.82148834060726
0.01915605322250731,0.02766985465473278,-0.43101118398254956,-0.21787235140800476,-0.11971008777618408,-10.433931350708008,607250.5387585834,1068012.1846402516,513546.5872034898,-149.03624346792648
0.018091827003181824,0.025541404296676416,-0.4278185198887353,-0.14844051003456116,-0.11971008777618408,-10.615890502929688,601053.2823861414,1088243.1653147864,511928.681059001,-148.39249775375112
0.01915605322250731,0.030862529151520032,-0.42888275234984463,-0.028730420395731926,-0.05746084079146385,-10.532093048095703,571041.8883262216,1096227.6301618358,541368.3658512704,-154.29004621918875
0.011706476969310023,0.04469745543858913,-0.42462585579492107,0.08619125932455063,-0.11252748221158981,-10.565611839294434,585923.9342623624,1089387.263244921,538590.6256038197,-150.94539590092285
0.012770702148338208,0.03405520572890189,-0.41611202939556036,-0.090979665517807,-0.17238251864910126,-10.663774490356445,590774.08414951,1085698.3973991752,553955.8021829984,-156.80140948635182
0.007449576253197287,0.04044055472247639,-0.40759823628571334,0.026336219161748886,-0.20350714027881622,-10.63504409790039,568369.556068991,1092375.8459634741,557570.0110729183,-157.83365417791757
0.012770702148338208,0.031926755370845515,-0.40972670120793186,-0.08140286058187485,-0.11013327538967133,-10.424354553222656,578379.5746511444,1126160.2606008563,550719.9391685675,-159.67686317033704
0.012770702148338208,0.028734078793463663,-0.40227710726968047,-0.12928688526153564,-0.0694318488240242,-10.508151054382324,574870.7737514444,1123413.2793650066,572690.3821130414,-162.18111108547723
0.010642251790281838,0.042569007161127354,-0.395891779082052,-0.1412578970193863,-0.08140286058187485,-10.522516250610352,592829.6169042072,1143393.3406112264,582014.443711256,-159.22774531795417
0.011706476969310023,0.039376330583745504,-0.3884421851438006,-0.24660277366638184,-0.043095629662275314,-10.515334129333496,579883.8433207424,1126890.615385366,589160.3524854516,-164.57783868126134
0.015963377685422758,0.024477178077350926,-0.3809926244950628,-0.028730420395731926,-0.13168109953403473,-10.579977035522461,525412.389167691,1083857.6784639272,594155.6278569954,-162.75854060106005
0.014899152506394574,0.03831210644501462,-0.37886415957284425,-0.14365209639072418,-0.14365209639072418,-10.527304649353027,528551.5997580147,1146144.0821165447,592561.2596627743,-166.4295656148385
0.017027602864450944,0.025541404296676416,-0.37886415957284425,-0.038307227194309235,-0.1388636976480484,-10.517727851867676,545285.6272062901,1117430.563275923,619140.7029042335,-168.31063082456083
0.011706476969310023,0.031926755370845515,-0.37673572794013926,-0.08140286058187485,-0.1364694982767105,-10.606313705444336,547200.1156740575,1131023.297790095,634801.6916686492,-170.21759296819272
0.010642251790281838,0.03831210644501462,-0.3820568236666585,0.023942016065120697,-0.17717093229293823,-10.591948509216309,527383.535428297,1143022.559823428,647203.294983694,-172.40535663140858
0.011706476969310023,0.03618365400636365,-0.3714145989241065,-0.07900865375995636,-0.09816227108240128,-10.649409294128418,545611.463911522,1131762.9705202163,621350.3088292575,-174.28940686250036
0.010642251790281838,0.03724788230628374,-0.3629007725247458,-0.05506663769483566,-0.11252748221158981,-10.572794914245605,533474.6249002104,1161197.5270777566,685103.0796455982,-178.09084756700364
0.009578026611253655,0.031926755370845515,-0.35970810843093154,-0.002394201699644327,-0.09816227108240128,-10.60391902923584,538088.9817671437,1131600.0521676005,622186.7774717269,-176.30861401354872
0.006385351074169104,0.03831210644501462,-0.357579643508713,0.05746084079146385,-0.2106897532939911,-10.54406452178955,531829.314680069,1116365.05384057,634265.0230285639,-178.1523897340054
0.008513801432225472,0.03405520572890189,-0.3480016179377566,-0.0071826050989329815,-0.17238251864910126,-10.493785858154297,505383.3786479208,1172668.6476468183,679120.9478232823,180.0
0.008513801432225472,0.039376330583745504,-0.3416162897501281,-0.016759412363171577,-0.15562310814857483,-10.551246643066406,545853.0131773665,1147565.4073507597,648548.9345954979,178.1523897340054
0.010642251790281838,0.03724788230628374,-0.3373593931952046,-0.0694318488240242,-0.14604631066322327,-10.627861022949219,547357.2818469643,1148295.7621352691,686989.347912382,176.18592516570965
0.01383492732736639,0.024477178077350926,-0.3426805222112374,0.021547814831137657,-0.1628057211637497,-10.596736907958984,505405.2561147605,1135732.7319382671,667828.1029010039,176.05481377096245
0.006385351074169104,0.02766985465473278,-0.33629516073409527,0.004788403399288654,-0.1173158809542656,-10.512939453125,487503.16574361926,1161324.8204870159,695890.7136134363,172.40535663140858
0.008513801432225472,0.0329909795095764,-0.3299097992569532,-0.038307227194309235,-0.12210428714752197,-10.56800651550293,492622.40229076345,1126396.302335797,676078.8332706835,170.53767779197437
0.006385351074169104,0.03618365400636365,-0.3235244377798111,-0.05506663769483566,-0.14365209639072418,-10.5344877243042,516430.78631436254,1148748.8931277813,696104.0491799217,170.53767779197437
0.002128450358056368,0.031926755370845515,-0.3160748771310733,-0.16759411990642548,-0.019153613597154617,-10.613495826721191,515942.0291848956,1127250.1911381183,692789.626244054,168.31063082456083
0.011706476969310023,0.030862529151520032,-0.3118179805761498,-0.014365210197865963,-0.08379705995321274,-10.572794914245605,528966.4340139725,1152389.1491333651,711737.5379812667,166.8659776936037
0.008513801432225472,0.03618365400636365,-0.2969188259891606,-0.031124621629714966,-0.08140286058187485,-10.611102104187012,512270.30960019596,1117337.0067191322,713655.2685183358,164.57783868126134
0.012770702148338208,0.03405520572890189,-0.294790361066942,-0.05985504388809204,-0.05267243832349777,-10.599130630493164,528640.5952371215,1138056.650765849,709527.9180079108,162.75854060106005
0.010642251790281838,0.035119429867632765,-0.28414813632439,-0.06703764945268631,-0.10534487664699554,-10.563218116760254,470863.794443848,1171844.8274287411,735195.1141688324,164.57783868126134
0.009578026611253655,0.03405520572890189,-0.2777627748472479,-0.05985504388809204,-0.08379705995321274,-10.579977035522461,494205.2987217238,1135762.800632264,740613.0627930044,160.3461759419467
0.009578026611253655,0.035119429867632765,-0.26818474927629155,-0.040701430290937424,-0.0933738648891449,-10.520122528076172,515021.2687047342,1129824.93563673,723547.445806005,160.97439396243132
0.008513801432225472,0.028734078793463663,-0.26605630099882976,-0.05506663769483566,-0.08379705995321274,-10.520122528076172,477324.47455752146,1130480.3718272918,752718.821788164,156.03751102542182
0.008513801432225472,0.035119429867632765,-0.2554140429667641,0.0071826050989329815,-0.06703764945268631,-10.584765434265137,480159.7235885459,1141498.3617330994,737621.9904175486,156.03751102542182
0.008513801432225472,0.03618365400636365,-0.24477178493469848,-0.014365210197865963,-0.07182604819536209,-10.56800651550293,470964.2041846917,1143545.0529410231,749996.0949421067,158.55226367289467
0.008513801432225472,0.03618365400636365,-0.23200109526992788,-0.05027823522686958,-0.10055647045373917,-10.529699325561523,491617.25581508625,1130440.9843233426,731825.6749925955,156.03751102542182
0.011706476969310023,0.03724788230628374,-0.21923038896040048,-0.011971008032560349,-0.13407529890537262,-10.491392135620117,495109.4616213995,1161762.1859886094,766584.4960080456,156.03751102542182
0.010642251790281838,0.035119429867632765,-0.22029460477675297,-0.08140286058187485,-0.090979665517807,-10.563218116760254,521644.8692426428,1095626.7747806502,742175.9704361805,152.5924245621816
0.015963377685422758,0.035119429867632765,-0.21284502748325837,-0.05506663769483566,-0.11013327538967133,-10.558429718017578,460117.715879822,1110865.4426929364,762614.9720193237,152.5924245621816
0.007449576253197287,0.03724788230628374,-0.19475320880245495,-0.016759412363171577,-0.08619125932455063,-10.608707427978516,539014.4505363121,1122407.9055752852,733384.6343768886,153.434948822922
0.009578026611253655,0.035119429867632765,-0.18623939904785106,-0.05985504388809204,-0.07900865375995636,-10.608707427978516,462520.9632162918,1145956.9707590046,781590.4000602592,150.75117366345305
0.006385351074169104,0.035119429867632765,-0.17772560593800402,-0.014365210197865963,-0.10055647045373917,-10.539276123046875,492285.1486705043,1132276.1478735714,776034.8948807502,151.69924423399362
0.006385351074169104,0.03405520572890189,-0.16389068381212413,-0.028730420395731926,-0.07182604819536209,-10.558429718017578,517872.6417764507,1114013.272203303,748240.6313905322,150.01836063115067
0.010642251790281838,0.04044055472247639,-0.15324842578005848,0.05506663769483566,-0.11013327538967133,-10.5344877243042,496035.40384726576,1150825.5629903246,781263.0837541525,148.39249775375112
0.011706476969310023,0.04150478302239647,-0.13302815049941488,-0.014365210197865963,-0.09576806426048279,-10.520122528076172,455346.1949116012,1123190.5443811414,773343.6319977941,149.03624346792648
0.009578026611253655,0.03831210644501462,-0.12345011660608013,-0.043095629662275314,-0.08379705995321274,-10.556035041809082,478934.907468579,1092804.7821950207,754877.3749261934,147.3807569288072
0.007449576253197287,0.03724788230628374,-0.12025744418988747,-0.047884032130241394,-0.1173158809542656,-10.529699325561523,485273.20513649867,1116676.0141694583,768892.9544654049,143.13010235415598
0.007449576253197287,0.03618365400636365,-0.10961519448020024,-0.0071826050989329815,-0.11013327538967133,-10.563218116760254,481663.99184266437,1142228.7170663718,776062.4065998326,141.95295746817393
0.009578026611253655,0.03724788230628374,-0.0925875916157493,-0.014365210197865963,-0.05506663769483566,-10.587160110473633,472305.6494073607,1137109.2071627784,787331.6998179231,143.53076560994813
0.005321125895140919,0.03831210644501462,-0.0659819590191528,-0.0071826050989329815,-0.05746084079146385,-10.623072624206543,474404.8401126525,1120932.3186421494,792804.67130718,143.13010235415598
0.008513801432225472,0.03831210644501462,-0.05640393344819645,-0.026336219161748886,-0.047884032130241394,-10.599130630493164,507004.2762540291,1118269.5773345097,772152.3516707876,141.95295746817393
0.006385351074169104,0.03724788230628374,-0.0457616837385092,-0.05027823522686958,-0.11013327538967133,-10.553641319274902,495220.81001256703,1114994.4537563683,775739.0548932606,140.71059313749967
0.007449576253197287,0.04044055472247639,-0.0329909795095764,-0.021547814831137657,-0.10055647045373917,-10.575188636779785,481452.428813423,1076075.4933867343,757465.9323331213,139.1849161251184
0.004256900716112736,0.03831210644501462,-0.017027602864450944,0.009576806798577309,-0.11252748221158981,-10.577583312988281,497730.22225526377,1111680.036527635,758432.6181707012,140.71059313749967
0.006385351074169104,0.03831210644501462,-0.008513801432225472,-0.014365210197865963,-0.1149216815829277,-10.565611839294434,509266.4803007196,1109258.8953856674,778730.1200709208,140.4403320310055
0.007449576253197287,0.04044055472247639,0.01383492732736639,-0.0,-0.07182604819536209,-10.515334129333496,509839.5255343412,1129287.5669110597,757055.518580932,139.1849161251184
0.009578026611253655,0.04150478302239647,0.025541404296676416,-0.05027823522686958,-0.0694318488240242,-10.54406452178955,511938.81122841587,1113110.681340071,762528.4840185533,143.13010235415598
0.005321125895140919,0.03724788230628374,0.024477178077350926,-0.08379705995321274,-0.09576806426048279,-10.541669845581055,489023.5556344267,1135225.431796841,774121.1349948514,141.63251461513846
0.010642251790281838,0.04150478302239647,0.023412953938620047,-0.035913024097681046,-0.08858546614646912,-10.613495826721191,497056.669638725,1119951.0461853663,765306.2349022798,140.4403320310055
0.006385351074169104,0.03724788230628374,0.018091827003181824,-0.043095629662275314,-0.10295066982507706,-10.575188636779785,497056.669638725,1119951.0461853663,765306.2349022798,140.4403320310055
0.006385351074169104,0.03724788230628374,0.018091827003181824,-0.016759412363171577,-0.08858546614646912,-10.539276123046875,487209.572810341,1093332.9245373125,773261.114648194,138.9909130984298
0.007449576253197287,0.03831210644501462,0.011706476969310023,0.004788403399288654,-0.0933738648891449,-10.599130630493164,464620.15325681627,1129780.0831163966,787063.3761341562,140.4403320310055
0.003192675537084552,0.0457616837385092,0.012770702148338208,-0.05506663769483566,-0.1388636976480484,-10.572794914245605,521353.8114565583,1163802.338088993,788645.8691627457,140.4403320310055
0.009578026611253655,0.04150478302239647,0.015963377685422758,-0.05746084079146385,-0.09816227108240128,-10.606313705444336,491959.31196527247,1117943.740629278,773825.2889557261,140.4403320310055
0.006385351074169104,0.039376330583745504,0.014899152506394574,-0.019153613597154617,-0.12210428714752197,-10.572794914245605,500807.0201366531,1138500.4638127491,770534.4154317264,139.1849161251184
0.006385351074169104,0.039376330583745504,0.012770702148338208,-0.026336219161748886,-0.0933738648891449,-10.539276123046875,478339.9854328852,1109712.025500159,787844.8167538203,140.71059313749967
0.007449576253197287,0.03724788230628374,0.012770702148338208,-0.009576806798577309,-0.10295066982507706,-10.54645824432373,491796.3936126565,1110777.5370071314,772720.4859932142,140.4403320310055
0.005321125895140919,0.03831210644501462,0.01383492732736639,-0.043095629662275314,-0.047884032130241394,-10.575188636779785,485188.9152931083,1118145.9530714958,793881.9625506095,140.4403320310055
0.007449576253197287,0.03618365400636365,0.010642251790281838,-0.0,-0.10295066982507706,-10.623072624206543,501396.18899548706,1131699.4825476697,788649.8337622803,141.95295746817393
0.005321125895140919,0.03831210644501462,0.01383492732736639,-0.0071826050989329815,-0.07182604819536209,-10.565611839294434,488882.5140838831,1091123.313344164,761723.4916947013,141.95295746817393
0.006385351074169104,0.035119429867632765,0.014899152506394574,-0.047884032130241394,-0.10773907601833344,-10.630255699157715,494406.21617786837,1079163.344522412,770215.0260323689,141.95295746817393
0.007449576253197287,0.03831210644501462,0.017027602864450944,-0.040701430290937424,-0.08619125932455063,-10.548852920532227,505168.4166278711,1113312.9849055116,782585.1716617685,141.63251461513846
0.003192675537084552,0.03618365400636365,0.014899152506394574,-0.033518824726343155,-0.07900865375995636,-10.54645824432373,495815.8273694275,1098087.2129618595,742771.6047216778,141.63251461513846
0.003192675537084552,0.039376330583745504,0.01383492732736639,-0.0071826050989329815,-0.10055647045373917,-10.553641319274902,504068.5199231834,1135551.268502073,772448.1977099128,141.63251461513846
0.006385351074169104,0.03831210644501462,0.012770702148338208,-0.0694318488240242,-0.12210428714752197,-10.577583312988281,471390.5485221285,1129577.7786729352,767006.6839063009,141.63251461513846
0.006385351074169104,0.03831210644501462,0.01383492732736639,0.002394201699644327,-0.07661445438861847,-10.589553833007812,515385.10650201805,1080391.7743820003,754254.2266292933,141.95295746817393
0.008513801432225472,0.04150478302239647,0.014899152506394574,-0.06464344263076782,-0.090979665517807,-10.591948509216309,490938.0461738132,1148818.257434236,789782.1378075989,140.4403320310055
0.008513801432225472,0.03724788230628374,0.015963377685422758,-0.05985504388809204,-0.09816227108240128,-10.524910926818848,481104.71497373516,1098679.0014119819,766549.1690380557,140.4403320310055
0.002128450358056368,0.03724788230628374,0.012770702148338208,-0.026336219161748886,-0.1364694982767105,-10.556035041809082,490286.3706917304,1120153.3518224263,785362.9119092191,141.63251461513846
0.009578026611253655,0.03831210644501462,0.012770702148338208,-0.009576806798577309,-0.13407529890537262,-10.644620895385742,503416.8444411006,1106886.3628902633,768028.971811533,141.63251461513846
0.004256900716112736,0.03831210644501462,0.014899152506394574,-0.047884032130241394,-0.13407529890537262,-10.5344877243042,468718.21759443224,1125725.992718532,783208.3199586684,140.4403320310055
0.004256900716112736,0.03831210644501462,0.014899152506394574,-0.05985504388809204,-0.10295066982507706,-10.527304649353027,475751.9426093435,1104390.209081485,779057.4283803313,140.4403320310055
0.007449576253197287,0.03618365400636365,0.017027602864450944,-0.035913024097681046,-0.09576806426048279,-10.539276123046875,487698.3278681887,1114831.5354037525,776575.5235357301,140.19442890773482
0.005321125895140919,0.03831210644501462,0.01383492732736639,-0.009576806798577309,-0.08619125932455063,-10.51054573059082,484110.89539049286,1103448.3218375265,772452.1482611155,141.63251461513846
0.006385351074169104,0.03724788230628374,0.01383492732736639,-0.019153613597154617,-0.11013327538967133,-10.5344877243042,494384.33871102874,1116099.2602309631,781507.8709546473,141.63251461513846
0.007449576253197287,0.04044055472247639,0.01383492732736639,-0.002394201699644327,-0.0933738648891449,-10.565611839294434,488102.7948218818,1137800.176734463,804878.9568491227,140.4403320310055
0.007449576253197287,0.03831210644501462,0.014899152506394574,-0.026336219161748886,-0.07661445438861847,-10.599130630493164,488939.2654586528,1136695.3711378889,799110.1453723762,140.4403320310055
0.006385351074169104,0.04044055472247639,0.01383492732736639,-0.021547814831137657,-0.1149216815829277,-10.515334129333496,502743.2921569454,1115157.3721089843,774902.5862507913,140.4403320310055
0.005321125895140919,0.039376330583745504,0.011706476969310023,0.004788403399288654,-0.10295066982507706,-10.572794914245605,503416.8444411006,1106886.3628902633,768028.971811533,143.13010235415598
0.004256900716112736,0.03831210644501462,0.01383492732736639,-0.05027823522686958,-0.10055647045373917,-10.594342231750488,481821.1552791846,1159501.0911663438,828250.0533798737,140.4403320310055
0.009578026611253655,0.04044055472247639,0.015963377685422758,-0.043095629662275314,-0.090979665517807,-10.532093048095703,521283.2893130932,1141751.2337400531,782447.0427808247,138.9909130984298
0.006385351074169104,0.039376330583745504,0.01383492732736639,-0.05506663769483566,-0.0933738648891449,-10.584765434265137,482926.7112464178,1127156.635020338,787304.1941504763,139.1849161251184
0.004256900716112736,0.03831210644501462,0.012770702148338208,-0.026336219161748886,-0.11252748221158981,-10.488997459411621,500907.43186602014,1110200.7805580066,785335.4108264124,140.4403320310055
0.008513801432225472,0.04044055472247639,0.01383492732736639,-0.002394201699644327,-0.08140286058187485,-10.60391902923584,508514.2998397225,1108893.7616411939,759509.9211701425,140.4403320310055
0.007449576253197287,0.03831210644501462,0.015963377685422758,0.002394201699644327,-0.12928688526153564,-10.556035041809082,510265.8699548738,1115320.2925332193,774066.1069720462,141.63251461513846
0.007449576253197287,0.039376330583745504,0.012770702148338208,-0.021547814831137657,-0.1412578970193863,-10.596736907958984,475078.3923968076,1112661.3094234287,785931.0568679216,140.4403320310055
0.006385351074169104,0.039376330583745504,0.015963377685422758,-0.06224924325942993,-0.12928688526153564,-10.57040023803711,535505.6469833214,1119660.8339844805,755355.0672845908,140.4403320310055
0.008513801432225472,0.039376330583745504,0.01383492732736639,-0.019153613597154617,-0.1173158809542656,-10.496180534362793,498134.68954134046,1134648.6774193356,786736.0491917738,140.71059313749967
0.007449576253197287,0.035119429867632765,0.012770702148338208,-0.0454898327589035,-0.12210428714752197,-10.54645824432373,489534.1874943467,1119788.1278327506,766142.7035447492,140.71059313749967
0.002128450358056368,0.039376330583745504,0.014899152506394574,0.021547814831137657,-0.1173158809542656,-10.594342231750488,513016.73547748127,1127808.3105024209,783958.3089443231,140.4403320310055
0.006385351074169104,0.03831210644501462,0.012770702148338208,-0.033518824726343155,-0.07900865375995636,-10.608707427978516,498218.97938473074,1133178.7385172981,761747.0411065691,140.4403320310055
0.007449576253197287,0.03831210644501462,0.014899152506394574,-0.016759412363171577,-0.090979665517807,-10.56800651550293,508177.52232945163,1113029.2211279531,762946.7236579258,141.95295746817393
0.006385351074169104,0.039376330583745504,0.01383492732736639,-0.028730420395731926,-0.1173158809542656,-10.560823440551758,485025.9969404925,1110979.749449349,792777.1595880976,141.95295746817393
0.007449576253197287,0.039376330583745504,0.01383492732736639,-0.038307227194309235,-0.090979665517807,-10.563218116760254,490471.1658464186,1090383.6406140425,775174.8745340928,140.4403320310055
0.004256900716112736,0.03618365400636365,0.011706476969310023,-0.05267243832349777,-0.12210428714752197,-10.529699325561523,489023.5556344267,1135225.431796841,774121.1349948514,138.9909130984298
0.010642251790281838,0.039376330583745504,0.012770702148338208,-0.016759412363171577,-0.07661445438861847,-10.54406452178955,469065.93110173626,1103122.4851322947,774125.0855460542,140.4403320310055
0.007449576253197287,0.039376330583745504,0.012770702148338208,0.0071826050989329815,-0.10055647045373917,-10.515334129333496,486698.93821403454,1108770.1382562006,781239.5366346046,140.4403320310055
0.006385351074169104,0.03724788230628374,0.014899152506394574,-0.040701430290937424,-0.07422025501728058,-10.553641319274902,486783.22838980844,1107300.1989151526,756250.5262570798,140.4403320310055
0.011706476969310023,0.039376330583745504,0.014899152506394574,-0.06703764945268631,-0.05746084079146385,-10.536881446838379,487798.8349187223,1086531.8546596395,791376.5105864604,140.4403320310055
0.006385351074169104,0.039376330583745504,0.014899152506394574,-0.038307227194309235,-0.0933738648891449,-10.565611839294434,492307.02580496017,1095340.2326040305,764742.0522507918,141.63251461513846
0.006385351074169104,0.039376330583745504,0.01383492732736639,-0.035913024097681046,-0.1173158809542656,-10.529699325561523,502069.739208023,1123428.3822057256,781776.20527469,138.9909130984298
0.007449576253197287,0.03831210644501462,0.012770702148338208,-0.05985504388809204,-0.09816227108240128,-10.484209060668945,504842.5778510201,1098980.4865379953,780375.5516884126,141.63251461513846
0.006385351074169104,0.03724788230628374,0.015963377685422758,-0.047884032130241394,-0.1173158809542656,-10.611102104187012,490612.2073969622,1134485.7590667198,787572.517834243,141.63251461513846
0.007449576253197287,0.03831210644501462,0.01383492732736639,-0.038307227194309235,-0.08858546614646912,-10.582371711730957,508288.968113405,1066261.5825295646,772101.2882475171,141.95295746817393
0.005321125895140919,0.04044055472247639,0.01383492732736639,-0.026336219161748886,-0.10295066982507706,-10.536881446838379,495220.81001256703,1114994.4537563683,775739.0548932606,141.95295746817393
0.007449576253197287,0.039376330583745504,0.01383492732736639,-0.004788403399288654,-0.090979665517807,-10.512939453125,505494.2533331029,1127645.3921498049,784794.7775867926,141.95295746817393
0.008513801432225472,0.04044055472247639,0.014899152506394574,-0.05267243832349777,-0.11252748221158981,-10.599130630493164,489960.5319148793,1105820.8534549102,783153.2919358632,140.4403320310055
0.006385351074169104,0.03618365400636365,0.01383492732736639,-0.002394201699644327,-0.11252748221158981,-10.572794914245605,512853.81712486537,1120642.1068802741,782853.5059818112,140.4403320310055
0.010642251790281838,0.039376330583745504,0.01383492732736639,-0.033518824726343155,-0.06224924325942993,-10.560823440551758,491229.00623472827,1080642.600931051,743312.2356689778,140.4403320310055
0.007449576253197287,0.04044055472247639,0.014899152506394574,-0.026336219161748886,-0.08379705995321274,-10.541669845581055,501418.06579755945,1094763.5677171391,777356.993424642,139.1849161251184
0.008513801432225472,0.04150478302239647,0.010642251790281838,0.004788403399288654,-0.1173158809542656,-10.503362655639648,498319.48469602864,1104878.9662109518,776548.0118166475,139.1849161251184
0.005321125895140919,0.03405520572890189,0.012770702148338208,-0.021547814831137657,-0.10055647045373917,-10.539276123046875,455098.89106204483,1117494.2775894129,797227.8477567628,139.1849161251184
0.004256900716112736,0.03831210644501462,0.015963377685422758,-0.021547814831137657,-0.06703764945268631,-10.558429718017578,488798.22457287647,1092593.251807191,786712.4974875858,139.1849161251184
0.007449576253197287,0.039376330583745504,0.014899152506394574,0.004788403399288654,-0.09816227108240128,-10.54645824432373,466719.4396156583,1113603.196667387,792536.3369871374,139.1849161251184
0.006385351074169104,0.04044055472247639,0.012770702148338208,-0.0454898327589035,-0.0694318488240242,-10.488997459411621,461054.69389951025,1081460.955913239,771647.1453009876,138.9909130984298
0.004256900716112736,0.03724788230628374,0.010642251790281838,-0.028730420395731926,-0.08379705995321274,-10.591948509216309,520376.29926924367,1120805.0252328902,782017.037339342,140.4403320310055
0.009578026611253655,0.04150478302239647,0.010642251790281838,-0.035913024097681046,-0.05985504388809204,-10.524910926818848,496220.19900195405,1121055.8517819408,771075.0463790263,140.4403320310055
0.008513801432225472,0.03831210644501462,0.01383492732736639,-0.06224924325942993,-0.14604631066322327,-10.582371711730957,535931.9910714704,1105693.5600456507,772365.6579680251,140.4403320310055
0.004256900716112736,0.03831210644501462,0.014899152506394574,-0.009576806798577309,-0.09576806426048279,-10.498574256896973,498786.3650234233,1163313.5830311452,791155.2750901536,141.95295746817393
0.005321125895140919,0.03831210644501462,0.003192675537084552,-0.090979665517807,-0.1628057211637497,-10.57040023803711,511186.6304350352,1112745.5480346077,743308.2874100951,140.71059313749967
0.008513801432225472,0.0329909795095764,-0.0659819590191528,-0.0,-0.11971008777618408,-10.60152530670166,476403.61809142644,1133055.1146932945,783476.6542787111,141.95295746817393
0.011706476969310023,0.03618365400636365,-0.054275485170734675,-0.038307227194309235,-0.11013327538967133,-10.539276123046875,475914.86303357873,1111556.5038268545,780162.2453911753,140.4403320310055
0.008513801432225472,0.04044055472247639,-0.04895435615470185,-0.011971008032560349,-0.090979665517807,-10.527304649353027,475914.86303357873,1111556.5038268545,780162.2453911753,141.95295746817393
0.011706476969310023,0.039376330583745504,-0.05108280859335283,-0.028730420395731926,-0.05985504388809204,-10.589553833007812,500907.43186602014,1110200.7805580066,785335.4108264124,140.4403320310055
0.007449576253197287,0.03831210644501462,-0.007449576253197287,0.05506663769483566,-0.019153613597154617,-10.594342231750488,483785.05868526106,1089115.9145932333,770242.5423360916,140.4403320310055
-0.0,0.04150478302239647,0.0915233674770184,0.08140286058187485,-0.05746084079146385,-10.565611839294434,502069.739208023,1123428.3822057256,781776.20527469,140.4403320310055
-0.0,0.04044055472247639,0.19688165707991673,0.06464344263076782,-0.07182604819536209,-10.596736907958984,488124.6716239541,1100864.2619039326,793586.1165114844,140.4403320310055
0.007449576253197287,0.047890132015970976,0.2873408004182042,0.014365210197865963,-0.026336219161748886,-10.577583312988281,503069.1309337964,1129489.8704765004,777112.2062241472,140.4403320310055
-0.002128450358056368,0.03618365400636365,0.3118179805761498,-0.05746084079146385,-0.11013327538967133,-10.60391902923584,497135.3005519535,1128587.279393763,791400.0577060083,139.1849161251184
0.007449576253197287,0.047890132015970976,0.2958545935280513,-0.040701430290937424,-0.11252748221158981,-10.627861022949219,480501.68450066145,1129001.1154186528,779621.6121515553,140.4403320310055
-0.0,0.04256802095928618,0.28627656795709494,-0.07661445438861847,-0.0933738648891449,-10.589553833007812,474141.509698286,1142065.7987137558,776898.8752423021,139.1849161251184
0.003192675537084552,0.03831210644501462,0.2171019406829387,-0.1173158809542656,-0.1364694982767105,-10.608707427978516,502317.04338996287,1129124.6485584436,757891.9872234013,141.63251461513846
0.006385351074169104,0.04044055472247639,0.09578026403194195,-0.15562310814857483,-0.2106897532939911,-10.57040023803711,486519.8982247296,1128433.6786575015,740344.7284729617,141.95295746817393
0.008513801432225472,0.03618365400636365,-0.17240447692197117,-0.40222588181495667,-0.35913026332855225,-10.54406452178955,499622.83566019434,1162208.777434571,785386.4636134071,144.6887865603668
0.007449576253197287,0.024477178077350926,-0.5736174016648128,-0.4118026793003082,-0.17717093229293823,-10.642226219177246,492958.701287043,1124005.13821584,769161.2781491717,145.7842978675626
0.03724788230628374,0.039376330583745504,-0.9216189863130558,-0.8858546018600464,-0.47405192255973816,-10.558429718017578,486188.3042824952,1124207.3510970683,789217.9540363752,143.13010235415598
0.04150478302239647,0.008513801432225472,-2.0741749186587146,-1.0223240852355957,-0.3663128614425659,-10.76193618774414,494894.9733073352,1100662.046512075,773529.4489682367,147.3807569288072
0.058532385886847414,-0.012770702148338208,-2.3008548016888253,-0.22744916379451752,0.43335050344467163,-10.539276123046875,470103.3204797492,1045418.2686582224,797958.242613598,145.7842978675626
0.0457616837385092,0.021284503580563677,-2.267863828421033,-0.5003881454467773,0.21308395266532898,-10.812214851379395,490020.40910557756,1005119.3241247348,800357.6171800033,141.63251461513846
0.039376330583745504,0.008513801432225472,-2.247643511528497,-0.26815059781074524,-0.004788403399288654,-10.280701637268066,532157.2279208505,987912.55199013,809330.8107679232,143.13010235415598
0.02979830501278915,0.018091827003181824,-2.222102198777983,-0.5147533416748047,0.0071826050989329815,-10.204087257385254,540801.4829072217,928901.2727936747,807338.4803243116,131.0090869015702
0.05108280859335283,0.004256900716112736,-2.2018818818854475,-0.24420857429504395,0.16998831927776337,-10.429142951965332,543411.3071730101,897287.1249925462,804833.022802992,122.61924307119284
0.04363323129985824,-0.01383492732736639,-2.179533166649721,-0.40701428055763245,0.181959331035614,-10.986991882324219,530083.0377619403,820879.8474331051,772382.6564591612,111.44773632710536
0.024477178077350926,-0.017027602864450944,-2.159312849757185,-0.2346317619085312,0.31364041566848755,-10.977415084838867,602416.0477861228,765918.8966090048,741728.1141257649,99.7824070318073
0.025541404296676416,0.0457616837385092,-2.133771537006671,-0.2753331959247589,0.21547815203666687,-10.771512985229492,581621.9543172381,734920.8002246234,747500.8785932399,95.9061411137705
0.03618365400636365,0.05214703273208371,-2.1114226886128895,-0.33758243918418884,0.27054479718208313,-10.448296546936035,645438.8477913672,663629.3629835198,671263.9718913386,88.09084756700362
0.03724788230628374,-0.009578026611253655,-2.099716231409228,-0.08379705995321274,0.21308395266532898,-10.524910926818848,654919.5738937554,603513.2540926535,663502.8195819372,82.40535663140857
0.026605628435407296,0.025541404296676416,-2.0880097742055668,-0.3208230137825012,0.6272808313369751,-11.006145477294922,665668.7741498008,518218.89289743337,615900.6121518103,72.75854060106002
0.03831210644501462,0.03618365400636365,-2.07523911783031,-0.3687070608139038,0.3998316824436188,-10.467450141906738,727358.8453473327,510146.40582648787,596566.4100190961,64.29004621918874
0.028734078793463663,-0.005321125895140919,-2.0709821879858725,-0.36152446269989014,0.26575639843940735,-10.47942066192627,740821.0082383491,501105.7001964975,530359.2226859947,53.13010235415598
0.0457616837385092,0.003192675537084552,-2.0571473324390204,-0.23942017555236816,0.08858546614646912,-10.213664054870605,762068.9828571513,471094.4339450427,479221.3685061022,41.00908690157022
0.03724788230628374,-0.05214703273208371,-2.048633472750146,-0.26815059781074524,0.10055647045373917,-10.512939453125,782458.6081896708,479123.8670959283,445145.1717977918,39.28940686250036
0.04469745543858913,0.011706476969310023,-2.0475692735785502,-0.33758243918418884,0.363918662071228,-11.15697956085205,796610.4457493944,434982.4072359963,411854.37006684265,27.407575437818405
0.0659819590191528,0.020220277361238194,-2.03799121471808,-0.2059013396501541,0.35913026332855225,-10.591948509216309,799608.6130885977,453166.64775234595,397862.35613294534,19.65382405805331
0.047890132015970976,0.023412953938620047,-2.032670085702047,-0.35434186458587646,0.36152446269989014,-11.104307174682617,823854.8520296876,441339.6223328184,332732.46821359935,15.42216131873867
0.030862529151520032,-0.005321125895140919,-2.014578300310758,-0.2298433631658554,0.1604115068912506,-9.775525093078613,843834.3516638738,436506.60948324343,321435.6748852325,3.945186229037563
0.020220277361238194,-0.004256900716112736,-2.014578300310758,-0.4572925269603729,0.15322890877723694,-10.754754066467285,816663.8688831979,445402.9816026005,284695.7028700848,-3.8140748342903543
0.05321125687081459,0.08407379018352382,-2.0050002414502877,-0.2849099934101105,0.17238251864910126,-10.108319282531738,863023.6744370398,495074.07212071534,262421.489566468,-14.036243467926479
0.023412953938620047,0.020220277361238194,-1.9996791124342548,-0.4118026793003082,0.3471592366695404,-10.81700325012207,834321.2851388307,550282.2063249318,249616.83774808832,-20.323136829662943
0.014899152506394574,-0.001064225179028184,-1.9922295850750307,-0.5291185975074768,0.1867477297782898,-11.367670059204102,840233.3358485484,588120.6888949508,246621.7987015862,-29.981639368849336
0.05214703273208371,0.0595966100255783,-1.986908456058998,0.06703764945268631,0.3663128614425659,-9.41400146484375,823555.9638277676,662406.3107753312,257429.0359675241,-39.559667968994496
0.003192675537084552,-0.08513801432225471,-1.9879726552305934,-0.37828385829925537,0.11252748221158981,-10.654197692871094,793606.9831415494,705856.7511118632,273172.550719907,-49.18491612511841
0.0595966100255783,0.06811041145780378,-1.9709450690108992,-0.20111294090747833,-0.1628057211637497,-9.557653427124023,759318.4818463525,737558.8505994189,265572.50358382205,-61.69924423399363
0.06385351074169103,0.026605628435407296,-1.9720092681824952,-0.2346317619085312,-0.033518824726343155,-9.691728591918945,749753.4654599865,799144.9693688018,298322.68826859747,-72.75854060106002
0.01915605322250731,0.007449576253197287,-1.967752338338058,-0.45489832758903503,0.363918662071228,-10.900800704956055,746632.9136034102,846196.3253051166,308806.5600740429,-80.21759296819272
0.057468157586927325,-0.012770702148338208,-1.964559740823271,-0.40940847992897034,-0.019153613597154617,-10.304644584655762,703390.5408152059,895747.5509516652,340779.2119615999,-86.18592516570965
-0.009578026611253655,-0.05214703273208371,-1.964559740823271,-0.11971008777618408,0.9911994934082031,-11.42752456665039,678044.5008229784,929812.8620393731,395772.11529281427,-97.59464336859145
0.04363323129985824,0.047890132015970976,-1.9571100803059924,-0.7613561153411865,0.040701430290937424,-10.936713218688965,659786.5864741928,991423.2846313113,413022.96155652776,-103.57043438516149
0.026605628435407296,0.04150478302239647,-1.9507247521183637,-0.49799394607543945,-0.15322890877723694,-10.934319496154785,641792.000839197,1031900.1824680521,446179.6014455935,-110.77225468204583
0.021284503580563677,0.009578026611253655,-1.9368897634134565,-0.5315127968788147,0.30885201692581177,-10.721235275268555,618545.2472058112,1049788.6071067508,506645.46562978905,-124.21570213243739
0.022348727719294564,0.023412953938620047,-1.9251833062097954,-0.4884171485900879,0.05027823522686958,-10.627861022949219,623620.8244728264,1088731.9224442535,509419.26449531724,-126.86989764584402
0.03405520572890189,0.025541404296676416,-1.913476849006134,-0.2513911724090576,0.18914192914962769,-10.74996566772461,559415.5862633646,1110224.973562931,597142.7390713969,-136.33221985386965
0.012770702148338208,0.028734078793463663,-1.8932565321135983,0.21787235140800476,0.047884032130241394,-10.611102104187012,562408.0003870492,1138515.4292406964,634233.5713945543,-140.4403320310055
0.014899152506394574,0.025541404296676416,-1.8804858757383414,-0.26815059781074524,0.19393034279346466,-10.153809547424316,525873.5125073709,1152398.374638723,659845.7208996988,-152.5924245621816
0.024477178077350926,-0.018091827003181824,-1.866651020191489,-0.44771572947502136,-0.004788403399288654,-10.199298858642578,527462.1656767583,1151658.7939098454,673297.1223720625,-157.52056560289688
0.07343154047383658,0.03618365400636365,-1.856008762159423,-0.1388636976480484,-0.17477671802043915,-10.017339706420898,502138.0031513703,1148788.1892890022,716997.1807809984,-170.53767779197437
0.007449576253197287,0.003192675537084552,-1.846430703298953,-0.26336219906806946,0.42856210470199585,-10.6925048828125,514936.9809329632,1131294.9656619905,748536.4679395417,-176.30861401354872
0.007449576253197287,-0.012770702148338208,-1.8283389179076632,-0.24181437492370605,0.14365209639072418,-11.769895553588867,488776.3471060369,1129529.1675157421,798005.3424098642,178.09084756700364
0.006385351074169104,0.010642251790281838,-1.8134397300311604,0.07900865375995636,0.30885201692581177,-10.6925048828125,520213.38091662776,1113638.8216107434,780912.2343768298,164.05460409907712
0.02766985465473278,0.009578026611253655,-1.7953478114818162,0.08379705995321274,0.7038952708244324,-10.714052200317383,470917.9153502575,1081249.42345379,803482.2784986558,160.3461759419467
0.006385351074169104,0.028734078793463663,-1.7793845575917724,-0.4429273009300232,0.3423708379268646,-10.72602367401123,480803.10822081764,1044101.9326738185,824024.5536982439,152.5924245621816
0.05214703273208371,0.006385351074169104,-1.7581000415276409,-0.43095630407333374,0.07422025501728058,-10.764330863952637,496217.6628189507,984888.3469622828,801975.5416630527,143.13010235415598
0.010642251790281838,-0.001064225179028184,-1.7410724553079469,-0.3208230137825012,0.19632454216480255,-10.766724586486816,491793.76074029354,974609.9845542428,803620.9848893507,132.27368900609375
0.02979830501278915,-0.01915605322250731,-1.7283016657746353,-0.6105214357376099,-0.12928688526153564,-11.013327598571777,536966.8442664801,911821.8387519201,827099.3103195954,125.31121343963319
0.014899152506394574,0.009578026611253655,-1.7155310093993785,0.047884032130241394,0.6847416758537292,-10.675745010375977,552954.5401228273,872636.9730770281,783375.6977669457,120.96375653207352
0.03618365400636365,0.007449576253197287,-1.7016960206944711,-0.014365210197865963,0.16519992053508759,-10.491392135620117,534159.2256685261,853761.7183054033,779820.4522301177,111.44773632710536
0.011706476969310023,-0.026605628435407296,-1.68998956349081,-0.36152446269989014,-0.17717093229293823,-10.453084945678711,559010.752950424,808303.8765838781,772595.9743652049,101.6893691754392
0.005321125895140919,0.02979830501278915,-1.6793473054587442,0.26096799969673157,0.7110779285430908,-11.080365180969238,619375.5026142658,779837.5589516314,755716.1796535738,99.7824070318073
0.022348727719294564,-0.02766985465473278,-1.6718977780995201,0.011971008032560349,0.7637503147125244,-11.068394660949707,605699.5193248495,726033.7425387952,732349.0361135512,90.0
0.0457616837385092,-0.012770702148338208,-1.6655124499118916,-0.10055647045373917,-0.035913024097681046,-10.237606048583984,614590.9824685679,672718.6811838067,706472.4866461207,84.0938588862295
0.03831210644501462,0.04044055472247639,-1.6399710040033233,0.21547815203666687,0.11971008777618408,-10.369287490844727,656385.8426926322,668009.2461576137,673446.0708291258,80.21759296819272
0.02979830501278915,0.0329909795095764,-1.6101727614083723,-0.08140286058187485,0.29209262132644653,-10.8720703125,662952.6889338634,588238.9140427905,654687.9265135315,69.22774531795417
0.020220277361238194,0.03618365400636365,-1.1695835185653527,0.6799532771110535,0.768538773059845,-10.393229484558105,667319.8387874624,552945.1963153102,615655.8283897956,64.29004621918874
0.003192675537084552,0.026605628435407296,-0.5321126019976595,0.26096799969673157,0.05506663769483566,-10.618284225463867,680349.9974968255,567977.9382711204,583520.8892853134,54.68878656036681
-0.007449576253197287,0.05001858445462194,-0.09045914333828754,0.2561795711517334,0.11013327538967133,-10.462661743164062,712213.374027372,538120.2733046904,583438.3672038675,50.44033203100551
0.006385351074169104,0.0329909795095764,0.0915233674770184,0.026336219161748886,0.19871874153614044,-10.78348445892334,701918.0544226686,562405.27252259,585675.4883600569,43.66778014613036
0.006385351074169104,0.04044055472247639,0.12983546976084384,-0.05506663769483566,-0.014365210197865963,-10.484209060668945,723323.2883170625,549666.4056625424,586725.2761283327,38.04704253182609
0.003192675537084552,0.04044055472247639,0.12345011660608013,-0.043095629662275314,-0.05506663769483566,-10.508151054382324,700408.0313548802,571781.1109967114,598317.9223727849,31.6075022462489
0.007449576253197287,0.04044055472247639,0.11812899591242572,-0.05027823522686958,-0.035913024097681046,-10.591948509216309,706605.28676883,551550.1785178501,599935.8492953603,31.6075022462489
